# scan = 81
# date = 9/5/2017
# time = 11:10:09 PM
# proposal = 19739
# experiment = Separation of phonon and magnetic scattering near the Majorana mode in Î±-RuCl3: feasibility study
# experiment_number = 600
# command = th2th 3 -3 0.2
# builtin_command = scan s2 @(s2)+3 @(s2)+-3 0.200000 s1 @(s1)+(3/2) @(s1)+(-3/2) 0.100000
# users = Paula Kelley
# local_contact = 
# scan_title = alignment while cooling on 3 0 0 peak
# monochromator = PG002
# analyzer = Pg002
# sense = -+-
# collimation = 48-40-40-120
# samplename = RuCl3
# sampletype = crystal
# samplemosaic = 30.000000
# latticeconstants = 5.975000,5.975000,16.960200,90.000000,90.000000,120.000000
# ubmatrix = 0.007322,-0.002180,-0.058883,0.192404,0.110778,0.002048,0.016575,-0.158338,0.002243
# mode = 0
# plane_normal = 0.034899,-0.087094,0.995584
# ubconf = UB05Sep2017_105727PM.ini
# preset_type = normal 
# preset_channel = time
# preset_value = 1.000000
# def_x = s2
# def_y = detector
# col_headers = 
#   Pt.         s2         s1       time   detector    monitor        mcu focal_length         m1         m2   mcrystal       marc     mtrans     mfocus        bab        bal        bar        bat        bbb        bbl        bbr        bbt        sgl        sgu        stl        stu         a1         a2          q          h          k          l         ei         ef          e   cold_tip    tsample       temp
      1    89.3196   137.0005      1.000    309.000  13843.000      5.272    66.7975   -22.2454   -41.1659   119.9771     2.6000    -2.0000   -34.2897    25.0000    10.0000    10.0000    25.0000    39.0000    30.0000    30.0000    39.0000    -2.0000    -7.9995    -0.0010    -0.0010   159.4104   -41.1799     3.7437     3.1720    -0.1861    -0.0101    14.7002    14.6907     0.0095     6.6836     7.7165     1.000
      2    89.1058   136.9008      1.000    308.000  13915.000      5.299    66.7975   -22.2454   -41.1659   119.9771     2.6000    -2.0000   -34.2897    25.0000    10.0000    10.0000    25.0000    39.0000    30.0000    30.0000    39.0000    -2.0000    -7.9995    -0.0010    -0.0010   159.4104   -41.1799     3.7367     3.1660    -0.1857    -0.0113    14.7002    14.6907     0.0095     6.6984     7.6032     1.000
      3    88.9052   136.8007      1.000    387.000  13731.000      5.229    66.7975   -22.2454   -41.1659   119.9771     2.6000    -2.0000   -34.2897    25.0000    10.0000    10.0000    25.0000    39.0000    30.0000    30.0000    39.0000    -2.0000    -7.9995    -0.0010    -0.0010   159.4104   -41.1799     3.7300     3.1603    -0.1854    -0.0113    14.7002    14.6907     0.0095     6.6557     7.5109     1.000
      4    88.7036   136.7007      1.000    497.000  14011.000      5.335    66.7975   -22.2454   -41.1659   119.9771     2.6000    -2.0000   -34.2897    25.0000    10.0000    10.0000    25.0000    39.0000    30.0000    30.0000    39.0000    -2.0000    -7.9995    -0.0010    -0.0010   159.4104   -41.1799     3.7233     3.1547    -0.1850    -0.0114    14.7002    14.6907     0.0095     6.6636     7.4389     1.000
      5    88.5028   136.6006      1.000    666.000  13915.000      5.299    66.7975   -22.2454   -41.1659   119.9771     2.6000    -2.0000   -34.2897    25.0000    10.0000    10.0000    25.0000    39.0000    30.0000    30.0000    39.0000    -2.0000    -7.9995    -0.0010    -0.0010   159.4104   -41.1799     3.7166     3.1490    -0.1847    -0.0114    14.7002    14.6907     0.0095     6.6550     7.3882     1.000
      6    88.3038   136.5006      1.000   1017.000  13809.000      5.259    66.7975   -22.2454   -41.1659   119.9771     2.6000    -2.0000   -34.2897    25.0000    10.0000    10.0000    25.0000    39.0000    30.0000    30.0000    39.0000    -2.0000    -7.9995    -0.0010    -0.0010   159.4104   -41.1799     3.7100     3.1434    -0.1844    -0.0113    14.7002    14.6907     0.0095     6.7074     7.3480     1.000
      7    88.1052   136.4006      1.000   2150.000  13889.000      5.289    66.7975   -22.2454   -41.1659   119.9771     2.6000    -2.0000   -34.2897    25.0000    10.0000    10.0000    25.0000    39.0000    30.0000    30.0000    39.0000    -2.0000    -7.9995    -0.0010    -0.0010   159.4104   -41.1799     3.7034     3.1378    -0.1841    -0.0112    14.7002    14.6907     0.0095     6.6688     7.3178     1.000
      8    87.9036   136.3006      1.000   6409.000  13803.000      5.256    66.7975   -22.2454   -41.1659   119.9771     2.6000    -2.0000   -34.2897    25.0000    10.0000    10.0000    25.0000    39.0000    30.0000    30.0000    39.0000    -2.0000    -7.9995    -0.0010    -0.0010   159.4104   -41.1799     3.6966     3.1321    -0.1837    -0.0113    14.7002    14.6907     0.0095     6.6753     7.2898     1.000
      9    87.7038   136.2006      1.000  19286.000  14247.000      5.425    66.7975   -22.2454   -41.1659   119.9771     2.6000    -2.0000   -34.2897    25.0000    10.0000    10.0000    25.0000    39.0000    30.0000    30.0000    39.0000    -2.0000    -7.9995    -0.0010    -0.0010   159.4104   -41.1799     3.6899     3.1264    -0.1834    -0.0113    14.7002    14.6907     0.0095     6.6907     7.2646     1.000
     10    87.5036   136.1006      1.000  43136.000  14138.000      5.384    66.7975   -22.2454   -41.1659   119.9771     2.6000    -2.0000   -34.2897    25.0000    10.0000    10.0000    25.0000    39.0000    30.0000    30.0000    39.0000    -2.0000    -7.9995    -0.0010    -0.0010   159.4104   -41.1799     3.6832     3.1207    -0.1831    -0.0112    14.7002    14.6907     0.0095     6.6698     7.2480     1.000
     11    87.3062   136.0006      1.000  70287.000  13758.000      5.239    66.7975   -22.2454   -41.1659   119.9771     2.6000    -2.0000   -34.2897    25.0000    10.0000    10.0000    25.0000    39.0000    30.0000    30.0000    39.0000    -2.0000    -7.9995    -0.0010    -0.0010   159.4104   -41.1799     3.6766     3.1151    -0.1827    -0.0110    14.7002    14.6907     0.0095     6.6496     7.2318     1.000
     12    87.1054   135.9006      1.000  92117.000  14028.000      5.342    66.7975   -22.2454   -41.1659   119.9771     2.6000    -2.0000   -34.2897    25.0000    10.0000    10.0000    25.0000    39.0000    30.0000    30.0000    39.0000    -2.0000    -7.9995    -0.0010    -0.0010   159.4104   -41.1799     3.6698     3.1093    -0.1824    -0.0110    14.7002    14.6907     0.0095     6.6600     7.2164     1.000
     13    86.9050   135.8006      1.000 105079.000  13981.000      5.324    66.7975   -22.2454   -41.1659   119.9771     2.6000    -2.0000   -34.2897    25.0000    10.0000    10.0000    25.0000    39.0000    30.0000    30.0000    39.0000    -2.0000    -7.9995    -0.0010    -0.0010   159.4104   -41.1799     3.6631     3.1036    -0.1821    -0.0110    14.7002    14.6907     0.0095     6.6718     7.2022     1.000
     14    86.7044   135.7007      1.000 110695.000  14068.000      5.357    66.7975   -22.2454   -41.1659   119.9771     2.6000    -2.0000   -34.2897    25.0000    10.0000    10.0000    25.0000    39.0000    30.0000    30.0000    39.0000    -2.0000    -7.9995    -0.0010    -0.0010   159.4104   -41.1799     3.6563     3.0979    -0.1817    -0.0111    14.7002    14.6907     0.0095     6.6393     7.1929     1.000
     15    86.5036   135.6006      1.000 111405.000  14190.000      5.404    66.7975   -22.2454   -41.1659   119.9771     2.6000    -2.0000   -34.2897    25.0000    10.0000    10.0000    25.0000    39.0000    30.0000    30.0000    39.0000    -2.0000    -7.9995    -0.0010    -0.0010   159.4104   -41.1799     3.6495     3.0921    -0.1814    -0.0111    14.7002    14.6907     0.0095     6.6358     7.1798     1.000
     16    86.3040   135.5008      1.000 108796.000  13999.000      5.331    66.7975   -22.2454   -41.1659   119.9771     2.6000    -2.0000   -34.2897    25.0000    10.0000    10.0000    25.0000    39.0000    30.0000    30.0000    39.0000    -2.0000    -7.9995    -0.0010    -0.0010   159.4104   -41.1799     3.6427     3.0864    -0.1810    -0.0111    14.7002    14.6907     0.0095     6.6285     7.1638     1.000
     17    86.1046   135.4006      1.000 102818.000  14210.000      5.411    66.7975   -22.2454   -41.1659   119.9771     2.6000    -2.0000   -34.2897    25.0000    10.0000    10.0000    25.0000    39.0000    30.0000    30.0000    39.0000    -2.0000    -7.9995    -0.0010    -0.0010   159.4104   -41.1799     3.6360     3.0807    -0.1807    -0.0110    14.7002    14.6907     0.0095     6.6118     7.1477     1.000
     18    85.9042   135.3006      1.000  92572.000  14109.000      5.373    66.7975   -22.2454   -41.1659   119.9771     2.6000    -2.0000   -34.2897    25.0000    10.0000    10.0000    25.0000    39.0000    30.0000    30.0000    39.0000    -2.0000    -7.9995    -0.0010    -0.0010   159.4104   -41.1799     3.6292     3.0749    -0.1804    -0.0110    14.7002    14.6907     0.0095     6.6254     7.1322     1.000
     19    85.7046   135.2006      1.000  78453.000  14066.000      5.356    66.7975   -22.2454   -41.1659   119.9771     2.6000    -2.0000   -34.2897    25.0000    10.0000    10.0000    25.0000    39.0000    30.0000    30.0000    39.0000    -2.0000    -7.9995    -0.0010    -0.0010   159.4104   -41.1799     3.6224     3.0691    -0.1800    -0.0109    14.7002    14.6907     0.0095     6.6408     7.1201     1.000
     20    85.5038   135.1006      1.000  60158.000  14005.000      5.333    66.7975   -22.2454   -41.1659   119.9771     2.6000    -2.0000   -34.2897    25.0000    10.0000    10.0000    25.0000    39.0000    30.0000    30.0000    39.0000    -2.0000    -7.9995    -0.0010    -0.0010   159.4104   -41.1799     3.6155     3.0633    -0.1797    -0.0110    14.7002    14.6907     0.0095     6.6273     7.1098     1.000
     21    85.3048   135.0008      1.000  38980.000  13915.000      5.299    66.7975   -22.2454   -41.1659   119.9771     2.6000    -2.0000   -34.2897    25.0000    10.0000    10.0000    25.0000    39.0000    30.0000    30.0000    39.0000    -2.0000    -7.9995    -0.0010    -0.0010   159.4104   -41.1799     3.6087     3.0576    -0.1794    -0.0109    14.7002    14.6907     0.0095     6.5755     7.1002     1.000
     22    85.1042   134.9008      1.000  18897.000  13775.000      5.246    66.7975   -22.2454   -41.1659   119.9771     2.6000    -2.0000   -34.2897    25.0000    10.0000    10.0000    25.0000    39.0000    30.0000    30.0000    39.0000    -2.0000    -7.9995    -0.0010    -0.0010   159.4104   -41.1799     3.6019     3.0518    -0.1790    -0.0109    14.7002    14.6907     0.0095     6.5798     7.0884     1.000
     23    84.9058   134.8009      1.000   6650.000  13779.000      5.247    66.7975   -22.2454   -41.1659   119.9771     2.6000    -2.0000   -34.2897    25.0000    10.0000    10.0000    25.0000    39.0000    30.0000    30.0000    39.0000    -2.0000    -7.9995    -0.0010    -0.0010   159.4104   -41.1799     3.5951     3.0460    -0.1787    -0.0108    14.7002    14.6907     0.0095     6.5810     7.0798     1.000
     24    84.7028   134.7009      1.000   1980.000  13925.000      5.303    66.7975   -22.2454   -41.1659   119.9771     2.6000    -2.0000   -34.2897    25.0000    10.0000    10.0000    25.0000    39.0000    30.0000    30.0000    39.0000    -2.0000    -7.9995    -0.0010    -0.0010   159.4104   -41.1799     3.5881     3.0401    -0.1783    -0.0110    14.7002    14.6907     0.0095     6.5833     7.0699     1.000
     25    84.5040   134.6006      1.000    878.000  13912.000      5.298    66.7975   -22.2454   -41.1659   119.9771     2.6000    -2.0000   -34.2897    25.0000    10.0000    10.0000    25.0000    39.0000    30.0000    30.0000    39.0000    -2.0000    -7.9995    -0.0010    -0.0010   159.4104   -41.1799     3.5813     3.0343    -0.1780    -0.0108    14.7002    14.6907     0.0095     6.5716     7.0589     1.000
     26    84.3036   134.5008      1.000    537.000  13926.000      5.303    66.7975   -22.2454   -41.1659   119.9771     2.6000    -2.0000   -34.2897    25.0000    10.0000    10.0000    25.0000    39.0000    30.0000    30.0000    39.0000    -2.0000    -7.9995    -0.0010    -0.0010   159.4104   -41.1799     3.5744     3.0285    -0.1776    -0.0108    14.7002    14.6907     0.0095     6.5846     7.0486     1.000
     27    84.1050   134.4006      1.000    352.000  13936.000      5.307    66.7975   -22.2454   -41.1659   119.9771     2.6000    -2.0000   -34.2897    25.0000    10.0000    10.0000    25.0000    39.0000    30.0000    30.0000    39.0000    -2.0000    -7.9995    -0.0010    -0.0010   159.4104   -41.1799     3.5675     3.0227    -0.1773    -0.0107    14.7002    14.6907     0.0095     6.5503     7.0419     1.000
     28    83.9038   134.3009      1.000    272.000  13807.000      5.258    66.7975   -22.2454   -41.1659   119.9771     2.6000    -2.0000   -34.2897    25.0000    10.0000    10.0000    25.0000    39.0000    30.0000    30.0000    39.0000    -2.0000    -7.9995    -0.0010    -0.0010   159.4104   -41.1799     3.5606     3.0168    -0.1770    -0.0108    14.7002    14.6907     0.0095     6.5692     7.0396     1.000
     29    83.7052   134.2009      1.000    195.000  13877.000      5.284    66.7975   -22.2454   -41.1659   119.9771     2.6000    -2.0000   -34.2897    25.0000    10.0000    10.0000    25.0000    39.0000    30.0000    30.0000    39.0000    -2.0000    -7.9995    -0.0010    -0.0010   159.4104   -41.1799     3.5537     3.0109    -0.1766    -0.0106    14.7002    14.6907     0.0095     6.5780     7.0362     1.000
     30    83.5042   134.1008      1.000    191.000  13883.000      5.287    66.7975   -22.2454   -41.1659   119.9771     2.6000    -2.0000   -34.2897    25.0000    10.0000    10.0000    25.0000    39.0000    30.0000    30.0000    39.0000    -2.0000    -7.9995    -0.0010    -0.0010   159.4104   -41.1799     3.5467     3.0050    -0.1763    -0.0107    14.7002    14.6907     0.0095     6.5974     7.0347     1.000
     31    83.3052   134.0009      1.000    150.000  13743.000      5.233    66.7975   -22.2454   -41.1659   119.9771     2.6000    -2.0000   -34.2897    25.0000    10.0000    10.0000    25.0000    39.0000    30.0000    30.0000    39.0000    -2.0000    -7.9995    -0.0010    -0.0010   159.4104   -41.1799     3.5398     2.9992    -0.1759    -0.0106    14.7002    14.6907     0.0095     6.5603     7.0330     1.000
# Sum of Counts = 1075627
# Center of Mass = 86.436013+/-0.117865
# Full Width Half-Maximum = 1.356209+/-0.052793
# 11:11:17 PM  9/5/2017   scan completed.
