# scan = 15
# date = 9/5/2017
# time = 1:50:00 PM
# proposal = 19739
# experiment = Separation of phonon and magnetic scattering near the Majorana mode in Î±-RuCl3: feasibility study
# experiment_number = 600
# command = scan s1 138 128 0.1
# builtin_command = scan s1 138 128 0.1
# users = Paula Kelley
# local_contact = 
# scan_title = Co-Alignment on post RT 3 0 0 postion
# monochromator = PG002
# analyzer = Pg002
# sense = -+-
# collimation = 48-40-40-120
# samplename = RuCl3
# sampletype = crystal
# samplemosaic = 30.000000
# latticeconstants = 5.975000,5.975000,17.000000,90.000000,90.000000,120.000000
# ubmatrix = -0.193255,-0.096628,0.000000,-0.000000,0.000000,-0.058824,0.000000,-0.167364,0.000000
# mode = 0
# plane_normal = 0.000000,0.000000,1.000000
# ubconf = UB05Sep2017_10850PM.ini
# preset_type = normal 
# preset_channel = time
# preset_value = 1.000000
# def_x = s1
# def_y = detector
# col_headers = 
#   Pt.         s1       time   detector    monitor        mcu focal_length         m1         m2   mcrystal       marc     mtrans     mfocus        bab        bal        bar        bat        bbb        bbl        bbr        bbt         s2        sgl        sgu        stl        stu         a1         a2          q          h          k          l         ei         ef          e   cold_tip    tsample       temp
      1   138.0002      1.000   4111.000  13303.000      5.066    66.7975   -22.2454   -41.1655   119.9771     2.6000    -2.0000   -34.2897    39.0000    30.0000    30.0000    39.0000    10.0000    30.0000    30.0000    30.0000    86.2904     0.0000    -1.9995    -0.0010     0.0000   159.4104   -41.1799     3.6423    -0.1931    -0.1204    -9.8136    14.7005    14.6907     0.0098     1.0000     1.0000     1.000
      2   137.9001      1.000   4304.000  13615.000      5.185    66.7975   -22.2454   -41.1655   119.9771     2.6000    -2.0000   -34.2897    39.0000    30.0000    30.0000    39.0000    10.0000    30.0000    30.0000    30.0000    86.2904     0.0000    -1.9995    -0.0010     0.0000   159.4104   -41.1799     3.6423    -0.1879    -0.1204    -9.8150    14.7005    14.6907     0.0098     1.0000     1.0000     1.000
      3   137.8000      1.000   4617.000  13355.000      5.086    66.7975   -22.2454   -41.1655   119.9771     2.6000    -2.0000   -34.2897    39.0000    30.0000    30.0000    39.0000    10.0000    30.0000    30.0000    30.0000    86.2904     0.0000    -1.9995    -0.0010     0.0000   159.4104   -41.1799     3.6423    -0.1827    -0.1205    -9.8164    14.7005    14.6907     0.0098     1.0000     1.0000     1.000
      4   137.7000      1.000   4547.000  13307.000      5.067    66.7975   -22.2454   -41.1655   119.9771     2.6000    -2.0000   -34.2897    39.0000    30.0000    30.0000    39.0000    10.0000    30.0000    30.0000    30.0000    86.2904     0.0000    -1.9995    -0.0010     0.0000   159.4104   -41.1799     3.6423    -0.1774    -0.1205    -9.8178    14.7005    14.6907     0.0098     1.0000     1.0000     1.000
      5   137.6000      1.000   4728.000  13388.000      5.098    66.7975   -22.2454   -41.1655   119.9771     2.6000    -2.0000   -34.2897    39.0000    30.0000    30.0000    39.0000    10.0000    30.0000    30.0000    30.0000    86.2904     0.0000    -1.9995    -0.0010     0.0000   159.4104   -41.1799     3.6423    -0.1722    -0.1205    -9.8191    14.7005    14.6907     0.0098     1.0000     1.0000     1.000
      6   137.5000      1.000   4866.000  13516.000      5.147    66.7975   -22.2454   -41.1655   119.9771     2.6000    -2.0000   -34.2897    39.0000    30.0000    30.0000    39.0000    10.0000    30.0000    30.0000    30.0000    86.2904     0.0000    -1.9995    -0.0010     0.0000   159.4104   -41.1799     3.6423    -0.1670    -0.1205    -9.8205    14.7005    14.6907     0.0098     1.0000     1.0000     1.000
      7   137.4000      1.000   4974.000  13540.000      5.156    66.7975   -22.2454   -41.1655   119.9771     2.6000    -2.0000   -34.2897    39.0000    30.0000    30.0000    39.0000    10.0000    30.0000    30.0000    30.0000    86.2904     0.0000    -1.9995    -0.0010     0.0000   159.4104   -41.1799     3.6423    -0.1618    -0.1205    -9.8217    14.7005    14.6907     0.0098     1.0000     1.0000     1.000
      8   137.3000      1.000   5150.000  13718.000      5.224    66.7975   -22.2454   -41.1655   119.9771     2.6000    -2.0000   -34.2897    39.0000    30.0000    30.0000    39.0000    10.0000    30.0000    30.0000    30.0000    86.2904     0.0000    -1.9995    -0.0010     0.0000   159.4104   -41.1799     3.6423    -0.1565    -0.1205    -9.8230    14.7005    14.6907     0.0098     1.0000     1.0000     1.000
      9   137.2000      1.000   5308.000  13630.000      5.190    66.7975   -22.2454   -41.1655   119.9771     2.6000    -2.0000   -34.2897    39.0000    30.0000    30.0000    39.0000    10.0000    30.0000    30.0000    30.0000    86.2904     0.0000    -1.9995    -0.0010     0.0000   159.4104   -41.1799     3.6423    -0.1513    -0.1205    -9.8242    14.7005    14.6907     0.0098     1.0000     1.0000     1.000
     10   137.1000      1.000   5290.000  13155.000      5.010    66.7975   -22.2454   -41.1655   119.9771     2.6000    -2.0000   -34.2897    39.0000    30.0000    30.0000    39.0000    10.0000    30.0000    30.0000    30.0000    86.2904     0.0000    -1.9995    -0.0010     0.0000   159.4104   -41.1799     3.6423    -0.1461    -0.1206    -9.8254    14.7005    14.6907     0.0098     1.0000     1.0000     1.000
     11   137.0000      1.000   5343.000  13464.000      5.127    66.7975   -22.2454   -41.1655   119.9771     2.6000    -2.0000   -34.2897    39.0000    30.0000    30.0000    39.0000    10.0000    30.0000    30.0000    30.0000    86.2904     0.0000    -1.9995    -0.0010     0.0000   159.4104   -41.1799     3.6423    -0.1408    -0.1206    -9.8266    14.7005    14.6907     0.0098     1.0000     1.0000     1.000
     12   136.9000      1.000   5566.000  13493.000      5.138    66.7975   -22.2454   -41.1655   119.9771     2.6000    -2.0000   -34.2897    39.0000    30.0000    30.0000    39.0000    10.0000    30.0000    30.0000    30.0000    86.2904     0.0000    -1.9995    -0.0010     0.0000   159.4104   -41.1799     3.6423    -0.1356    -0.1206    -9.8277    14.7005    14.6907     0.0098     1.0000     1.0000     1.000
     13   136.8000      1.000   6040.000  13225.000      5.036    66.7975   -22.2454   -41.1655   119.9771     2.6000    -2.0000   -34.2897    39.0000    30.0000    30.0000    39.0000    10.0000    30.0000    30.0000    30.0000    86.2904     0.0000    -1.9995    -0.0010     0.0000   159.4104   -41.1799     3.6423    -0.1304    -0.1206    -9.8288    14.7005    14.6907     0.0098     1.0000     1.0000     1.000
     14   136.7000      1.000   6865.000  13380.000      5.095    66.7975   -22.2454   -41.1655   119.9771     2.6000    -2.0000   -34.2897    39.0000    30.0000    30.0000    39.0000    10.0000    30.0000    30.0000    30.0000    86.2904     0.0000    -1.9995    -0.0010     0.0000   159.4104   -41.1799     3.6423    -0.1251    -0.1206    -9.8299    14.7005    14.6907     0.0098     1.0000     1.0000     1.000
     15   136.6000      1.000   7734.000  13540.000      5.156    66.7975   -22.2454   -41.1655   119.9771     2.6000    -2.0000   -34.2897    39.0000    30.0000    30.0000    39.0000    10.0000    30.0000    30.0000    30.0000    86.2904     0.0000    -1.9995    -0.0010     0.0000   159.4104   -41.1799     3.6423    -0.1199    -0.1206    -9.8310    14.7005    14.6907     0.0098     1.0000     1.0000     1.000
     16   136.5000      1.000   8571.000  13706.000      5.219    66.7975   -22.2454   -41.1655   119.9771     2.6000    -2.0000   -34.2897    39.0000    30.0000    30.0000    39.0000    10.0000    30.0000    30.0000    30.0000    86.2904     0.0000    -1.9995    -0.0010     0.0000   159.4104   -41.1799     3.6423    -0.1147    -0.1206    -9.8320    14.7005    14.6907     0.0098     1.0000     1.0000     1.000
     17   136.4000      1.000   9593.000  13359.000      5.087    66.7975   -22.2454   -41.1655   119.9771     2.6000    -2.0000   -34.2897    39.0000    30.0000    30.0000    39.0000    10.0000    30.0000    30.0000    30.0000    86.2904     0.0000    -1.9995    -0.0010     0.0000   159.4104   -41.1799     3.6423    -0.1094    -0.1207    -9.8330    14.7005    14.6907     0.0098     1.0000     1.0000     1.000
     18   136.3000      1.000  10701.000  13383.000      5.096    66.7975   -22.2454   -41.1655   119.9771     2.6000    -2.0000   -34.2897    39.0000    30.0000    30.0000    39.0000    10.0000    30.0000    30.0000    30.0000    86.2904     0.0000    -1.9995    -0.0010     0.0000   159.4104   -41.1799     3.6423    -0.1042    -0.1207    -9.8339    14.7005    14.6907     0.0098     1.0000     1.0000     1.000
     19   136.2000      1.000  12535.000  13498.000      5.140    66.7975   -22.2454   -41.1655   119.9771     2.6000    -2.0000   -34.2897    39.0000    30.0000    30.0000    39.0000    10.0000    30.0000    30.0000    30.0000    86.2904     0.0000    -1.9995    -0.0010     0.0000   159.4104   -41.1799     3.6423    -0.0990    -0.1207    -9.8349    14.7005    14.6907     0.0098     1.0000     1.0000     1.000
     20   136.1000      1.000  15261.000  13479.000      5.133    66.7975   -22.2454   -41.1655   119.9771     2.6000    -2.0000   -34.2897    39.0000    30.0000    30.0000    39.0000    10.0000    30.0000    30.0000    30.0000    86.2904     0.0000    -1.9995    -0.0010     0.0000   159.4104   -41.1799     3.6423    -0.0937    -0.1207    -9.8357    14.7005    14.6907     0.0098     1.0000     1.0000     1.000
     21   136.0000      1.000  18436.000  13419.000      5.110    66.7975   -22.2454   -41.1655   119.9771     2.6000    -2.0000   -34.2897    39.0000    30.0000    30.0000    39.0000    10.0000    30.0000    30.0000    30.0000    86.2904     0.0000    -1.9995    -0.0010     0.0000   159.4104   -41.1799     3.6423    -0.0885    -0.1207    -9.8366    14.7005    14.6907     0.0098     1.0000     1.0000     1.000
     22   135.9000      1.000  21472.000  13370.000      5.091    66.7975   -22.2454   -41.1655   119.9771     2.6000    -2.0000   -34.2897    39.0000    30.0000    30.0000    39.0000    10.0000    30.0000    30.0000    30.0000    86.2904     0.0000    -1.9995    -0.0010     0.0000   159.4104   -41.1799     3.6423    -0.0833    -0.1207    -9.8375    14.7005    14.6907     0.0098     1.0000     1.0000     1.000
     23   135.8000      1.000  23643.000  13306.000      5.067    66.7975   -22.2454   -41.1655   119.9771     2.6000    -2.0000   -34.2897    39.0000    30.0000    30.0000    39.0000    10.0000    30.0000    30.0000    30.0000    86.2904     0.0000    -1.9995    -0.0010     0.0000   159.4104   -41.1799     3.6423    -0.0780    -0.1207    -9.8383    14.7005    14.6907     0.0098     1.0000     1.0000     1.000
     24   135.7000      1.000  25264.000  13370.000      5.091    66.7975   -22.2454   -41.1655   119.9771     2.6000    -2.0000   -34.2897    39.0000    30.0000    30.0000    39.0000    10.0000    30.0000    30.0000    30.0000    86.2904     0.0000    -1.9995    -0.0010     0.0000   159.4104   -41.1799     3.6423    -0.0728    -0.1207    -9.8390    14.7005    14.6907     0.0098     1.0000     1.0000     1.000
     25   135.6000      1.000  26680.000  13476.000      5.132    66.7975   -22.2454   -41.1655   119.9771     2.6000    -2.0000   -34.2897    39.0000    30.0000    30.0000    39.0000    10.0000    30.0000    30.0000    30.0000    86.2904     0.0000    -1.9995    -0.0010     0.0000   159.4104   -41.1799     3.6423    -0.0676    -0.1207    -9.8398    14.7005    14.6907     0.0098     1.0000     1.0000     1.000
     26   135.5000      1.000  29294.000  13551.000      5.160    66.7975   -22.2454   -41.1655   119.9771     2.6000    -2.0000   -34.2897    39.0000    30.0000    30.0000    39.0000    10.0000    30.0000    30.0000    30.0000    86.2904     0.0000    -1.9995    -0.0010     0.0000   159.4104   -41.1799     3.6423    -0.0623    -0.1207    -9.8405    14.7005    14.6907     0.0098     1.0000     1.0000     1.000
     27   135.4000      1.000  34604.000  13429.000      5.114    66.7975   -22.2454   -41.1655   119.9771     2.6000    -2.0000   -34.2897    39.0000    30.0000    30.0000    39.0000    10.0000    30.0000    30.0000    30.0000    86.2904     0.0000    -1.9995    -0.0010     0.0000   159.4104   -41.1799     3.6423    -0.0571    -0.1208    -9.8412    14.7005    14.6907     0.0098     1.0000     1.0000     1.000
     28   135.3000      1.000  44209.000  13417.000      5.109    66.7975   -22.2454   -41.1655   119.9771     2.6000    -2.0000   -34.2897    39.0000    30.0000    30.0000    39.0000    10.0000    30.0000    30.0000    30.0000    86.2904     0.0000    -1.9995    -0.0010     0.0000   159.4104   -41.1799     3.6423    -0.0519    -0.1208    -9.8419    14.7005    14.6907     0.0098     1.0000     1.0000     1.000
     29   135.2000      1.000  57936.000  13681.000      5.210    66.7975   -22.2454   -41.1655   119.9771     2.6000    -2.0000   -34.2897    39.0000    30.0000    30.0000    39.0000    10.0000    30.0000    30.0000    30.0000    86.2904     0.0000    -1.9995    -0.0010     0.0000   159.4104   -41.1799     3.6423    -0.0466    -0.1208    -9.8425    14.7005    14.6907     0.0098     1.0000     1.0000     1.000
     30   135.1000      1.000  71990.000  13602.000      5.180    66.7975   -22.2454   -41.1655   119.9771     2.6000    -2.0000   -34.2897    39.0000    30.0000    30.0000    39.0000    10.0000    30.0000    30.0000    30.0000    86.2904     0.0000    -1.9995    -0.0010     0.0000   159.4104   -41.1799     3.6423    -0.0414    -0.1208    -9.8431    14.7005    14.6907     0.0098     1.0000     1.0000     1.000
     31   135.0000      1.000  85294.000  13455.000      5.124    66.7975   -22.2454   -41.1655   119.9771     2.6000    -2.0000   -34.2897    39.0000    30.0000    30.0000    39.0000    10.0000    30.0000    30.0000    30.0000    86.2904     0.0000    -1.9995    -0.0010     0.0000   159.4104   -41.1799     3.6423    -0.0362    -0.1208    -9.8436    14.7005    14.6907     0.0098     1.0000     1.0000     1.000
     32   134.9000      1.000  97564.000  13490.000      5.137    66.7975   -22.2454   -41.1655   119.9771     2.6000    -2.0000   -34.2897    39.0000    30.0000    30.0000    39.0000    10.0000    30.0000    30.0000    30.0000    86.2904     0.0000    -1.9995    -0.0010     0.0000   159.4104   -41.1799     3.6423    -0.0309    -0.1208    -9.8442    14.7005    14.6907     0.0098     1.0000     1.0000     1.000
     33   134.8000      1.000 109920.000  13706.000      5.219    66.7975   -22.2454   -41.1655   119.9771     2.6000    -2.0000   -34.2897    39.0000    30.0000    30.0000    39.0000    10.0000    30.0000    30.0000    30.0000    86.2904     0.0000    -1.9995    -0.0010     0.0000   159.4104   -41.1799     3.6423    -0.0257    -0.1208    -9.8447    14.7005    14.6907     0.0098     1.0000     1.0000     1.000
     34   134.7000      1.000 119442.000  13721.000      5.225    66.7975   -22.2454   -41.1655   119.9771     2.6000    -2.0000   -34.2897    39.0000    30.0000    30.0000    39.0000    10.0000    30.0000    30.0000    30.0000    86.2904     0.0000    -1.9995    -0.0010     0.0000   159.4104   -41.1799     3.6423    -0.0204    -0.1208    -9.8452    14.7005    14.6907     0.0098     1.0000     1.0000     1.000
     35   134.6000      1.000 123689.000  13564.000      5.165    66.7975   -22.2454   -41.1655   119.9771     2.6000    -2.0000   -34.2897    39.0000    30.0000    30.0000    39.0000    10.0000    30.0000    30.0000    30.0000    86.2904     0.0000    -1.9995    -0.0010     0.0000   159.4104   -41.1799     3.6423    -0.0152    -0.1208    -9.8456    14.7005    14.6907     0.0098     1.0000     1.0000     1.000
     36   134.5000      1.000 123773.000  13343.000      5.081    66.7975   -22.2454   -41.1655   119.9771     2.6000    -2.0000   -34.2897    39.0000    30.0000    30.0000    39.0000    10.0000    30.0000    30.0000    30.0000    86.2904     0.0000    -1.9995    -0.0010     0.0000   159.4104   -41.1799     3.6423    -0.0100    -0.1208    -9.8460    14.7005    14.6907     0.0098     1.0000     1.0000     1.000
     37   134.4000      1.000 121274.000  13544.000      5.158    66.7975   -22.2454   -41.1655   119.9771     2.6000    -2.0000   -34.2897    39.0000    30.0000    30.0000    39.0000    10.0000    30.0000    30.0000    30.0000    86.2904     0.0000    -1.9995    -0.0010     0.0000   159.4104   -41.1799     3.6423    -0.0047    -0.1208    -9.8464    14.7005    14.6907     0.0098     1.0000     1.0000     1.000
     38   134.3000      1.000 114062.000  13205.000      5.029    66.7975   -22.2454   -41.1655   119.9771     2.6000    -2.0000   -34.2897    39.0000    30.0000    30.0000    39.0000    10.0000    30.0000    30.0000    30.0000    86.2904     0.0000    -1.9995    -0.0010     0.0000   159.4104   -41.1799     3.6423     0.0005    -0.1208    -9.8468    14.7005    14.6907     0.0098     1.0000     1.0000     1.000
     39   134.2000      1.000 104448.000  13403.000      5.104    66.7975   -22.2454   -41.1655   119.9771     2.6000    -2.0000   -34.2897    39.0000    30.0000    30.0000    39.0000    10.0000    30.0000    30.0000    30.0000    86.2904     0.0000    -1.9995    -0.0010     0.0000   159.4104   -41.1799     3.6423     0.0057    -0.1208    -9.8471    14.7005    14.6907     0.0098     1.0000     1.0000     1.000
     40   134.1000      1.000  95078.000  13402.000      5.104    66.7975   -22.2454   -41.1655   119.9771     2.6000    -2.0000   -34.2897    39.0000    30.0000    30.0000    39.0000    10.0000    30.0000    30.0000    30.0000    86.2904     0.0000    -1.9995    -0.0010     0.0000   159.4104   -41.1799     3.6423     0.0110    -0.1208    -9.8474    14.7005    14.6907     0.0098     1.0000     1.0000     1.000
     41   134.0000      1.000  88200.000  13600.000      5.179    66.7975   -22.2454   -41.1655   119.9771     2.6000    -2.0000   -34.2897    39.0000    30.0000    30.0000    39.0000    10.0000    30.0000    30.0000    30.0000    86.2904     0.0000    -1.9995    -0.0010     0.0000   159.4104   -41.1799     3.6423     0.0162    -0.1208    -9.8477    14.7005    14.6907     0.0098     1.0000     1.0000     1.000
     42   133.9000      1.000  82600.000  13325.000      5.074    66.7975   -22.2454   -41.1655   119.9771     2.6000    -2.0000   -34.2897    39.0000    30.0000    30.0000    39.0000    10.0000    30.0000    30.0000    30.0000    86.2904     0.0000    -1.9995    -0.0010     0.0000   159.4104   -41.1799     3.6423     0.0214    -0.1208    -9.8479    14.7005    14.6907     0.0098     1.0000     1.0000     1.000
     43   133.8000      1.000  76196.000  13517.000      5.147    66.7975   -22.2454   -41.1655   119.9771     2.6000    -2.0000   -34.2897    39.0000    30.0000    30.0000    39.0000    10.0000    30.0000    30.0000    30.0000    86.2904     0.0000    -1.9995    -0.0010     0.0000   159.4104   -41.1799     3.6423     0.0267    -0.1208    -9.8481    14.7005    14.6907     0.0098     1.0000     1.0000     1.000
     44   133.7000      1.000  69775.000  13575.000      5.169    66.7975   -22.2454   -41.1655   119.9771     2.6000    -2.0000   -34.2897    39.0000    30.0000    30.0000    39.0000    10.0000    30.0000    30.0000    30.0000    86.2904     0.0000    -1.9995    -0.0010     0.0000   159.4104   -41.1799     3.6423     0.0319    -0.1208    -9.8483    14.7005    14.6907     0.0098     1.0000     1.0000     1.000
     45   133.6000      1.000  64327.000  13495.000      5.139    66.7975   -22.2454   -41.1655   119.9771     2.6000    -2.0000   -34.2897    39.0000    30.0000    30.0000    39.0000    10.0000    30.0000    30.0000    30.0000    86.2904     0.0000    -1.9995    -0.0010     0.0000   159.4104   -41.1799     3.6423     0.0371    -0.1208    -9.8485    14.7005    14.6907     0.0098     1.0000     1.0000     1.000
     46   133.5000      1.000  59301.000  13429.000      5.114    66.7975   -22.2454   -41.1655   119.9771     2.6000    -2.0000   -34.2897    39.0000    30.0000    30.0000    39.0000    10.0000    30.0000    30.0000    30.0000    86.2904     0.0000    -1.9995    -0.0010     0.0000   159.4104   -41.1799     3.6423     0.0424    -0.1208    -9.8486    14.7005    14.6907     0.0098     1.0000     1.0000     1.000
     47   133.4000      1.000  54733.000  13483.000      5.134    66.7975   -22.2454   -41.1655   119.9771     2.6000    -2.0000   -34.2897    39.0000    30.0000    30.0000    39.0000    10.0000    30.0000    30.0000    30.0000    86.2904     0.0000    -1.9995    -0.0010     0.0000   159.4104   -41.1799     3.6423     0.0476    -0.1208    -9.8487    14.7005    14.6907     0.0098     1.0000     1.0000     1.000
     48   133.3000      1.000  50765.000  13319.000      5.072    66.7975   -22.2454   -41.1655   119.9771     2.6000    -2.0000   -34.2897    39.0000    30.0000    30.0000    39.0000    10.0000    30.0000    30.0000    30.0000    86.2904     0.0000    -1.9995    -0.0010     0.0000   159.4104   -41.1799     3.6423     0.0529    -0.1208    -9.8487    14.7005    14.6907     0.0098     1.0000     1.0000     1.000
     49   133.2000      1.000  47954.000  13432.000      5.115    66.7975   -22.2454   -41.1655   119.9771     2.6000    -2.0000   -34.2897    39.0000    30.0000    30.0000    39.0000    10.0000    30.0000    30.0000    30.0000    86.2904     0.0000    -1.9995    -0.0010     0.0000   159.4104   -41.1799     3.6423     0.0581    -0.1208    -9.8487    14.7005    14.6907     0.0098     1.0000     1.0000     1.000
     50   133.0999      1.000  45430.000  13674.000      5.207    66.7975   -22.2454   -41.1655   119.9771     2.6000    -2.0000   -34.2897    39.0000    30.0000    30.0000    39.0000    10.0000    30.0000    30.0000    30.0000    86.2904     0.0000    -1.9995    -0.0010     0.0000   159.4104   -41.1799     3.6423     0.0633    -0.1208    -9.8487    14.7005    14.6907     0.0098     1.0000     1.0000     1.000
     51   133.0001      1.000  43970.000  13503.000      5.142    66.7975   -22.2454   -41.1655   119.9771     2.6000    -2.0000   -34.2897    39.0000    30.0000    30.0000    39.0000    10.0000    30.0000    30.0000    30.0000    86.2904     0.0000    -1.9995    -0.0010     0.0000   159.4104   -41.1799     3.6423     0.0686    -0.1208    -9.8487    14.7005    14.6907     0.0098     1.0000     1.0000     1.000
     52   132.9000      1.000  42289.000  13628.000      5.190    66.7975   -22.2454   -41.1655   119.9771     2.6000    -2.0000   -34.2897    39.0000    30.0000    30.0000    39.0000    10.0000    30.0000    30.0000    30.0000    86.2904     0.0000    -1.9995    -0.0010     0.0000   159.4104   -41.1799     3.6423     0.0738    -0.1208    -9.8487    14.7005    14.6907     0.0098     1.0000     1.0000     1.000
     53   132.8000      1.000  41350.000  13763.000      5.241    66.7975   -22.2454   -41.1655   119.9771     2.6000    -2.0000   -34.2897    39.0000    30.0000    30.0000    39.0000    10.0000    30.0000    30.0000    30.0000    86.2904     0.0000    -1.9995    -0.0010     0.0000   159.4104   -41.1799     3.6423     0.0790    -0.1208    -9.8486    14.7005    14.6907     0.0098     1.0000     1.0000     1.000
     54   132.7000      1.000  40119.000  13668.000      5.205    66.7975   -22.2454   -41.1655   119.9771     2.6000    -2.0000   -34.2897    39.0000    30.0000    30.0000    39.0000    10.0000    30.0000    30.0000    30.0000    86.2904     0.0000    -1.9995    -0.0010     0.0000   159.4104   -41.1799     3.6423     0.0843    -0.1208    -9.8484    14.7005    14.6907     0.0098     1.0000     1.0000     1.000
     55   132.6000      1.000  39433.000  13362.000      5.088    66.7975   -22.2454   -41.1655   119.9771     2.6000    -2.0000   -34.2897    39.0000    30.0000    30.0000    39.0000    10.0000    30.0000    30.0000    30.0000    86.2904     0.0000    -1.9995    -0.0010     0.0000   159.4104   -41.1799     3.6423     0.0895    -0.1208    -9.8483    14.7005    14.6907     0.0098     1.0000     1.0000     1.000
     56   132.5000      1.000  39572.000  13367.000      5.090    66.7975   -22.2454   -41.1655   119.9771     2.6000    -2.0000   -34.2897    39.0000    30.0000    30.0000    39.0000    10.0000    30.0000    30.0000    30.0000    86.2904     0.0000    -1.9995    -0.0010     0.0000   159.4104   -41.1799     3.6423     0.0947    -0.1208    -9.8481    14.7005    14.6907     0.0098     1.0000     1.0000     1.000
     57   132.4000      1.000  39629.000  13558.000      5.163    66.7975   -22.2454   -41.1655   119.9771     2.6000    -2.0000   -34.2897    39.0000    30.0000    30.0000    39.0000    10.0000    30.0000    30.0000    30.0000    86.2904     0.0000    -1.9995    -0.0010     0.0000   159.4104   -41.1799     3.6423     0.1000    -0.1208    -9.8479    14.7005    14.6907     0.0098     1.0000     1.0000     1.000
     58   132.3000      1.000  40305.000  13406.000      5.105    66.7975   -22.2454   -41.1655   119.9771     2.6000    -2.0000   -34.2897    39.0000    30.0000    30.0000    39.0000    10.0000    30.0000    30.0000    30.0000    86.2904     0.0000    -1.9995    -0.0010     0.0000   159.4104   -41.1799     3.6423     0.1052    -0.1208    -9.8477    14.7005    14.6907     0.0098     1.0000     1.0000     1.000
     59   132.2000      1.000  41157.000  13540.000      5.156    66.7975   -22.2454   -41.1655   119.9771     2.6000    -2.0000   -34.2897    39.0000    30.0000    30.0000    39.0000    10.0000    30.0000    30.0000    30.0000    86.2904     0.0000    -1.9995    -0.0010     0.0000   159.4104   -41.1799     3.6423     0.1104    -0.1208    -9.8474    14.7005    14.6907     0.0098     1.0000     1.0000     1.000
     60   132.1000      1.000  41757.000  13377.000      5.094    66.7975   -22.2454   -41.1655   119.9771     2.6000    -2.0000   -34.2897    39.0000    30.0000    30.0000    39.0000    10.0000    30.0000    30.0000    30.0000    86.2904     0.0000    -1.9995    -0.0010     0.0000   159.4104   -41.1799     3.6423     0.1157    -0.1208    -9.8471    14.7005    14.6907     0.0098     1.0000     1.0000     1.000
     61   132.0000      1.000  43770.000  13351.000      5.084    66.7975   -22.2454   -41.1655   119.9771     2.6000    -2.0000   -34.2897    39.0000    30.0000    30.0000    39.0000    10.0000    30.0000    30.0000    30.0000    86.2904     0.0000    -1.9995    -0.0010     0.0000   159.4104   -41.1799     3.6423     0.1209    -0.1208    -9.8467    14.7005    14.6907     0.0098     1.0000     1.0000     1.000
     62   131.9000      1.000  49011.000  13425.000      5.112    66.7975   -22.2454   -41.1655   119.9771     2.6000    -2.0000   -34.2897    39.0000    30.0000    30.0000    39.0000    10.0000    30.0000    30.0000    30.0000    86.2904     0.0000    -1.9995    -0.0010     0.0000   159.4104   -41.1799     3.6423     0.1261    -0.1208    -9.8464    14.7005    14.6907     0.0098     1.0000     1.0000     1.000
     63   131.8000      1.000  59825.000  13365.000      5.089    66.7975   -22.2454   -41.1655   119.9771     2.6000    -2.0000   -34.2897    39.0000    30.0000    30.0000    39.0000    10.0000    30.0000    30.0000    30.0000    86.2904     0.0000    -1.9995    -0.0010     0.0000   159.4104   -41.1799     3.6423     0.1314    -0.1208    -9.8460    14.7005    14.6907     0.0098     1.0000     1.0000     1.000
     64   131.7000      1.000  74422.000  13407.000      5.105    66.7975   -22.2454   -41.1655   119.9771     2.6000    -2.0000   -34.2897    39.0000    30.0000    30.0000    39.0000    10.0000    30.0000    30.0000    30.0000    86.2904     0.0000    -1.9995    -0.0010     0.0000   159.4104   -41.1799     3.6423     0.1366    -0.1208    -9.8456    14.7005    14.6907     0.0098     1.0000     1.0000     1.000
     65   131.6000      1.000  88730.000  13529.000      5.152    66.7975   -22.2454   -41.1655   119.9771     2.6000    -2.0000   -34.2897    39.0000    30.0000    30.0000    39.0000    10.0000    30.0000    30.0000    30.0000    86.2904     0.0000    -1.9995    -0.0010     0.0000   159.4104   -41.1799     3.6423     0.1418    -0.1208    -9.8451    14.7005    14.6907     0.0098     1.0000     1.0000     1.000
     66   131.5000      1.000  95466.000  13557.000      5.163    66.7975   -22.2454   -41.1655   119.9771     2.6000    -2.0000   -34.2897    39.0000    30.0000    30.0000    39.0000    10.0000    30.0000    30.0000    30.0000    86.2904     0.0000    -1.9995    -0.0010     0.0000   159.4104   -41.1799     3.6423     0.1471    -0.1208    -9.8446    14.7005    14.6907     0.0098     1.0000     1.0000     1.000
     67   131.4000      1.000  91673.000  13583.000      5.173    66.7975   -22.2454   -41.1655   119.9771     2.6000    -2.0000   -34.2897    39.0000    30.0000    30.0000    39.0000    10.0000    30.0000    30.0000    30.0000    86.2904     0.0000    -1.9995    -0.0010     0.0000   159.4104   -41.1799     3.6423     0.1523    -0.1208    -9.8441    14.7005    14.6907     0.0098     1.0000     1.0000     1.000
     68   131.3000      1.000  77254.000  13641.000      5.195    66.7975   -22.2454   -41.1655   119.9771     2.6000    -2.0000   -34.2897    39.0000    30.0000    30.0000    39.0000    10.0000    30.0000    30.0000    30.0000    86.2904     0.0000    -1.9995    -0.0010     0.0000   159.4104   -41.1799     3.6423     0.1575    -0.1208    -9.8436    14.7005    14.6907     0.0098     1.0000     1.0000     1.000
     69   131.2000      1.000  58622.000  13330.000      5.076    66.7975   -22.2454   -41.1655   119.9771     2.6000    -2.0000   -34.2897    39.0000    30.0000    30.0000    39.0000    10.0000    30.0000    30.0000    30.0000    86.2904     0.0000    -1.9995    -0.0010     0.0000   159.4104   -41.1799     3.6423     0.1627    -0.1208    -9.8430    14.7005    14.6907     0.0098     1.0000     1.0000     1.000
     70   131.1000      1.000  42443.000  13525.000      5.150    66.7975   -22.2454   -41.1655   119.9771     2.6000    -2.0000   -34.2897    39.0000    30.0000    30.0000    39.0000    10.0000    30.0000    30.0000    30.0000    86.2904     0.0000    -1.9995    -0.0010     0.0000   159.4104   -41.1799     3.6423     0.1680    -0.1208    -9.8424    14.7005    14.6907     0.0098     1.0000     1.0000     1.000
     71   131.0000      1.000  29197.000  13450.000      5.122    66.7975   -22.2454   -41.1655   119.9771     2.6000    -2.0000   -34.2897    39.0000    30.0000    30.0000    39.0000    10.0000    30.0000    30.0000    30.0000    86.2904     0.0000    -1.9995    -0.0010     0.0000   159.4104   -41.1799     3.6423     0.1732    -0.1208    -9.8418    14.7005    14.6907     0.0098     1.0000     1.0000     1.000
     72   130.9000      1.000  21086.000  13302.000      5.065    66.7975   -22.2454   -41.1655   119.9771     2.6000    -2.0000   -34.2897    39.0000    30.0000    30.0000    39.0000    10.0000    30.0000    30.0000    30.0000    86.2904     0.0000    -1.9995    -0.0010     0.0000   159.4104   -41.1799     3.6423     0.1784    -0.1208    -9.8411    14.7005    14.6907     0.0098     1.0000     1.0000     1.000
     73   130.8000      1.000  16391.000  13401.000      5.103    66.7975   -22.2454   -41.1655   119.9771     2.6000    -2.0000   -34.2897    39.0000    30.0000    30.0000    39.0000    10.0000    30.0000    30.0000    30.0000    86.2904     0.0000    -1.9995    -0.0010     0.0000   159.4104   -41.1799     3.6423     0.1837    -0.1207    -9.8404    14.7005    14.6907     0.0098     1.0000     1.0000     1.000
     74   130.7000      1.000  13576.000  13464.000      5.127    66.7975   -22.2454   -41.1655   119.9771     2.6000    -2.0000   -34.2897    39.0000    30.0000    30.0000    39.0000    10.0000    30.0000    30.0000    30.0000    86.2904     0.0000    -1.9995    -0.0010     0.0000   159.4104   -41.1799     3.6423     0.1889    -0.1207    -9.8397    14.7005    14.6907     0.0098     1.0000     1.0000     1.000
     75   130.6000      1.000  11810.000  13438.000      5.117    66.7975   -22.2454   -41.1655   119.9771     2.6000    -2.0000   -34.2897    39.0000    30.0000    30.0000    39.0000    10.0000    30.0000    30.0000    30.0000    86.2904     0.0000    -1.9995    -0.0010     0.0000   159.4104   -41.1799     3.6423     0.1941    -0.1207    -9.8390    14.7005    14.6907     0.0098     1.0000     1.0000     1.000
     76   130.5000      1.000  10865.000  13632.000      5.191    66.7975   -22.2454   -41.1655   119.9771     2.6000    -2.0000   -34.2897    39.0000    30.0000    30.0000    39.0000    10.0000    30.0000    30.0000    30.0000    86.2904     0.0000    -1.9995    -0.0010     0.0000   159.4104   -41.1799     3.6423     0.1993    -0.1207    -9.8382    14.7005    14.6907     0.0098     1.0000     1.0000     1.000
     77   130.4000      1.000  10301.000  13490.000      5.137    66.7975   -22.2454   -41.1655   119.9771     2.6000    -2.0000   -34.2897    39.0000    30.0000    30.0000    39.0000    10.0000    30.0000    30.0000    30.0000    86.2904     0.0000    -1.9995    -0.0010     0.0000   159.4104   -41.1799     3.6423     0.2046    -0.1207    -9.8374    14.7005    14.6907     0.0098     1.0000     1.0000     1.000
     78   130.3000      1.000   9564.000  13525.000      5.150    66.7975   -22.2454   -41.1655   119.9771     2.6000    -2.0000   -34.2897    39.0000    30.0000    30.0000    39.0000    10.0000    30.0000    30.0000    30.0000    86.2904     0.0000    -1.9995    -0.0010     0.0000   159.4104   -41.1799     3.6423     0.2098    -0.1207    -9.8365    14.7005    14.6907     0.0098     1.0000     1.0000     1.000
     79   130.2000      1.000   9393.000  13396.000      5.101    66.7975   -22.2454   -41.1655   119.9771     2.6000    -2.0000   -34.2897    39.0000    30.0000    30.0000    39.0000    10.0000    30.0000    30.0000    30.0000    86.2904     0.0000    -1.9995    -0.0010     0.0000   159.4104   -41.1799     3.6423     0.2150    -0.1207    -9.8357    14.7005    14.6907     0.0098     1.0000     1.0000     1.000
     80   130.1000      1.000  10674.000  13503.000      5.142    66.7975   -22.2454   -41.1655   119.9771     2.6000    -2.0000   -34.2897    39.0000    30.0000    30.0000    39.0000    10.0000    30.0000    30.0000    30.0000    86.2904     0.0000    -1.9995    -0.0010     0.0000   159.4104   -41.1799     3.6423     0.2202    -0.1207    -9.8348    14.7005    14.6907     0.0098     1.0000     1.0000     1.000
     81   130.0000      1.000  13783.000  13398.000      5.102    66.7975   -22.2454   -41.1655   119.9771     2.6000    -2.0000   -34.2897    39.0000    30.0000    30.0000    39.0000    10.0000    30.0000    30.0000    30.0000    86.2904     0.0000    -1.9995    -0.0010     0.0000   159.4104   -41.1799     3.6423     0.2254    -0.1207    -9.8338    14.7005    14.6907     0.0098     1.0000     1.0000     1.000
     82   129.9000      1.000  17229.000  13266.000      5.052    66.7975   -22.2454   -41.1655   119.9771     2.6000    -2.0000   -34.2897    39.0000    30.0000    30.0000    39.0000    10.0000    30.0000    30.0000    30.0000    86.2904     0.0000    -1.9995    -0.0010     0.0000   159.4104   -41.1799     3.6423     0.2307    -0.1207    -9.8329    14.7005    14.6907     0.0098     1.0000     1.0000     1.000
     83   129.8000      1.000  20897.000  13266.000      5.052    66.7975   -22.2454   -41.1655   119.9771     2.6000    -2.0000   -34.2897    39.0000    30.0000    30.0000    39.0000    10.0000    30.0000    30.0000    30.0000    86.2904     0.0000    -1.9995    -0.0010     0.0000   159.4104   -41.1799     3.6423     0.2359    -0.1206    -9.8319    14.7005    14.6907     0.0098     1.0000     1.0000     1.000
     84   129.7000      1.000  22105.000  13259.000      5.049    66.7975   -22.2454   -41.1655   119.9771     2.6000    -2.0000   -34.2897    39.0000    30.0000    30.0000    39.0000    10.0000    30.0000    30.0000    30.0000    86.2904     0.0000    -1.9995    -0.0010     0.0000   159.4104   -41.1799     3.6423     0.2411    -0.1206    -9.8308    14.7005    14.6907     0.0098     1.0000     1.0000     1.000
     85   129.6000      1.000  19971.000  13371.000      5.092    66.7975   -22.2454   -41.1655   119.9771     2.6000    -2.0000   -34.2897    39.0000    30.0000    30.0000    39.0000    10.0000    30.0000    30.0000    30.0000    86.2904     0.0000    -1.9995    -0.0010     0.0000   159.4104   -41.1799     3.6423     0.2463    -0.1206    -9.8298    14.7005    14.6907     0.0098     1.0000     1.0000     1.000
     86   129.5000      1.000  15845.000  13579.000      5.171    66.7975   -22.2454   -41.1655   119.9771     2.6000    -2.0000   -34.2897    39.0000    30.0000    30.0000    39.0000    10.0000    30.0000    30.0000    30.0000    86.2904     0.0000    -1.9995    -0.0010     0.0000   159.4104   -41.1799     3.6423     0.2515    -0.1206    -9.8287    14.7005    14.6907     0.0098     1.0000     1.0000     1.000
     87   129.4000      1.000  11080.000  13369.000      5.091    66.7975   -22.2454   -41.1655   119.9771     2.6000    -2.0000   -34.2897    39.0000    30.0000    30.0000    39.0000    10.0000    30.0000    30.0000    30.0000    86.2904     0.0000    -1.9995    -0.0010     0.0000   159.4104   -41.1799     3.6423     0.2568    -0.1206    -9.8276    14.7005    14.6907     0.0098     1.0000     1.0000     1.000
     88   129.3000      1.000   7692.000  13419.000      5.110    66.7975   -22.2454   -41.1655   119.9771     2.6000    -2.0000   -34.2897    39.0000    30.0000    30.0000    39.0000    10.0000    30.0000    30.0000    30.0000    86.2904     0.0000    -1.9995    -0.0010     0.0000   159.4104   -41.1799     3.6423     0.2620    -0.1206    -9.8265    14.7005    14.6907     0.0098     1.0000     1.0000     1.000
     89   129.2000      1.000   5596.000  13301.000      5.065    66.7975   -22.2454   -41.1655   119.9771     2.6000    -2.0000   -34.2897    39.0000    30.0000    30.0000    39.0000    10.0000    30.0000    30.0000    30.0000    86.2904     0.0000    -1.9995    -0.0010     0.0000   159.4104   -41.1799     3.6423     0.2672    -0.1206    -9.8253    14.7005    14.6907     0.0098     1.0000     1.0000     1.000
     90   129.1000      1.000   4326.000  13532.000      5.153    66.7975   -22.2454   -41.1655   119.9771     2.6000    -2.0000   -34.2897    39.0000    30.0000    30.0000    39.0000    10.0000    30.0000    30.0000    30.0000    86.2904     0.0000    -1.9995    -0.0010     0.0000   159.4104   -41.1799     3.6423     0.2724    -0.1205    -9.8241    14.7005    14.6907     0.0098     1.0000     1.0000     1.000
     91   129.0000      1.000   3824.000  13377.000      5.094    66.7975   -22.2454   -41.1655   119.9771     2.6000    -2.0000   -34.2897    39.0000    30.0000    30.0000    39.0000    10.0000    30.0000    30.0000    30.0000    86.2904     0.0000    -1.9995    -0.0010     0.0000   159.4104   -41.1799     3.6423     0.2776    -0.1205    -9.8229    14.7005    14.6907     0.0098     1.0000     1.0000     1.000
     92   128.9000      1.000   3470.000  13303.000      5.066    66.7975   -22.2454   -41.1655   119.9771     2.6000    -2.0000   -34.2897    39.0000    30.0000    30.0000    39.0000    10.0000    30.0000    30.0000    30.0000    86.2904     0.0000    -1.9995    -0.0010     0.0000   159.4104   -41.1799     3.6423     0.2828    -0.1205    -9.8216    14.7005    14.6907     0.0098     1.0000     1.0000     1.000
     93   128.8000      1.000   3177.000  13284.000      5.059    66.7975   -22.2454   -41.1655   119.9771     2.6000    -2.0000   -34.2897    39.0000    30.0000    30.0000    39.0000    10.0000    30.0000    30.0000    30.0000    86.2904     0.0000    -1.9995    -0.0010     0.0000   159.4104   -41.1799     3.6423     0.2881    -0.1205    -9.8203    14.7005    14.6907     0.0098     1.0000     1.0000     1.000
     94   128.7000      1.000   3042.000  13363.000      5.089    66.7975   -22.2454   -41.1655   119.9771     2.6000    -2.0000   -34.2897    39.0000    30.0000    30.0000    39.0000    10.0000    30.0000    30.0000    30.0000    86.2904     0.0000    -1.9995    -0.0010     0.0000   159.4104   -41.1799     3.6423     0.2933    -0.1205    -9.8190    14.7005    14.6907     0.0098     1.0000     1.0000     1.000
     95   128.6000      1.000   2752.000  13357.000      5.086    66.7975   -22.2454   -41.1655   119.9771     2.6000    -2.0000   -34.2897    39.0000    30.0000    30.0000    39.0000    10.0000    30.0000    30.0000    30.0000    86.2904     0.0000    -1.9995    -0.0010     0.0000   159.4104   -41.1799     3.6423     0.2985    -0.1205    -9.8176    14.7005    14.6907     0.0098     1.0000     1.0000     1.000
     96   128.5000      1.000   2555.000  13388.000      5.098    66.7975   -22.2454   -41.1655   119.9771     2.6000    -2.0000   -34.2897    39.0000    30.0000    30.0000    39.0000    10.0000    30.0000    30.0000    30.0000    86.2904     0.0000    -1.9995    -0.0010     0.0000   159.4104   -41.1799     3.6423     0.3037    -0.1205    -9.8163    14.7005    14.6907     0.0098     1.0000     1.0000     1.000
     97   128.4000      1.000   2369.000  13346.000      5.082    66.7975   -22.2454   -41.1655   119.9771     2.6000    -2.0000   -34.2897    39.0000    30.0000    30.0000    39.0000    10.0000    30.0000    30.0000    30.0000    86.2904     0.0000    -1.9995    -0.0010     0.0000   159.4104   -41.1799     3.6423     0.3089    -0.1204    -9.8148    14.7005    14.6907     0.0098     1.0000     1.0000     1.000
     98   128.3000      1.000   2308.000  13356.000      5.086    66.7975   -22.2454   -41.1655   119.9771     2.6000    -2.0000   -34.2897    39.0000    30.0000    30.0000    39.0000    10.0000    30.0000    30.0000    30.0000    86.2904     0.0000    -1.9995    -0.0010     0.0000   159.4104   -41.1799     3.6423     0.3141    -0.1204    -9.8134    14.7005    14.6907     0.0098     1.0000     1.0000     1.000
     99   128.2000      1.000   2238.000  13561.000      5.164    66.7975   -22.2454   -41.1655   119.9771     2.6000    -2.0000   -34.2897    39.0000    30.0000    30.0000    39.0000    10.0000    30.0000    30.0000    30.0000    86.2904     0.0000    -1.9995    -0.0010     0.0000   159.4104   -41.1799     3.6423     0.3193    -0.1204    -9.8119    14.7005    14.6907     0.0098     1.0000     1.0000     1.000
    100   128.1000      1.000   2178.000  13402.000      5.104    66.7975   -22.2454   -41.1655   119.9771     2.6000    -2.0000   -34.2897    39.0000    30.0000    30.0000    39.0000    10.0000    30.0000    30.0000    30.0000    86.2904     0.0000    -1.9995    -0.0010     0.0000   159.4104   -41.1799     3.6423     0.3245    -0.1204    -9.8104    14.7005    14.6907     0.0098     1.0000     1.0000     1.000
    101   128.0000      1.000   2146.000  13231.000      5.038    66.7975   -22.2454   -41.1655   119.9771     2.6000    -2.0000   -34.2897    39.0000    30.0000    30.0000    39.0000    10.0000    30.0000    30.0000    30.0000    86.2904     0.0000    -1.9995    -0.0010     0.0000   159.4104   -41.1799     3.6423     0.3297    -0.1204    -9.8089    14.7005    14.6907     0.0098     1.0000     1.0000     1.000
# Sum of Counts = 3625694
# Center of Mass = 133.371264+/-0.099061
# Full Width Half-Maximum = 3.517289+/-0.021735
# 1:53:05 PM  9/5/2017   scan completed.
