# scan = 39
# date = 9/5/2017
# time = 3:28:45 PM
# proposal = 19739
# experiment = Separation of phonon and magnetic scattering near the Majorana mode in Î±-RuCl3: feasibility study
# experiment_number = 600
# command = scanrel s1 5 -5 0.1
# builtin_command = scan s1 @(s1)+5 @(s1)+-5 0.100000
# users = Paula Kelley
# local_contact = 
# scan_title = Co-alignment on post RT 0 0 6 position
# monochromator = PG002
# analyzer = Pg002
# sense = -+-
# collimation = 48-40-40-120
# samplename = RuCl3
# sampletype = crystal
# samplemosaic = 30.000000
# latticeconstants = 5.975000,5.975000,17.000000,90.000000,90.000000,120.000000
# ubmatrix = 0.011053,0.002606,-0.058718,0.192939,0.096469,0.003365,-0.000193,-0.167435,0.001025
# mode = 0
# plane_normal = 0.017452,-0.000000,0.999848
# ubconf = UB05Sep2017_32726PM.ini
# preset_type = normal 
# preset_channel = time
# preset_value = 1.000000
# def_x = s1
# def_y = detector
# col_headers = 
#   Pt.         s1       time   detector    monitor        mcu focal_length         m1         m2   mcrystal       marc     mtrans     mfocus        bab        bal        bar        bat        bbb        bbl        bbr        bbt         s2        sgl        sgu        stl        stu         a1         a2          q          h          k          l         ei         ef          e   cold_tip    tsample       temp
      1   141.4240      1.000   1810.000  13446.000      5.120    66.7975   -22.2454   -41.1655   119.9771     2.6000    -2.0000   -34.2897    39.0000    30.0000    30.0000    39.0000    10.0000    30.0000    30.0000    30.0000    86.3046    -1.0000     0.0000    -0.0010     0.0000   159.4104   -41.1799     3.6428     2.9887    -0.0000    -0.8560    14.7005    14.6907     0.0098     1.0000     1.0000     1.000
      2   141.3235      1.000   1865.000  13449.000      5.121    66.7975   -22.2454   -41.1655   119.9771     2.6000    -2.0000   -34.2897    39.0000    30.0000    30.0000    39.0000    10.0000    30.0000    30.0000    30.0000    86.3046    -1.0000     0.0000    -0.0010     0.0000   159.4104   -41.1799     3.6428     2.9891     0.0000    -0.8387    14.7005    14.6907     0.0098     1.0000     1.0000     1.000
      3   141.2235      1.000   1968.000  13445.000      5.120    66.7975   -22.2454   -41.1655   119.9771     2.6000    -2.0000   -34.2897    39.0000    30.0000    30.0000    39.0000    10.0000    30.0000    30.0000    30.0000    86.3046    -1.0000     0.0000    -0.0010     0.0000   159.4104   -41.1799     3.6428     2.9896    -0.0000    -0.8216    14.7005    14.6907     0.0098     1.0000     1.0000     1.000
      4   141.1235      1.000   1834.000  13639.000      5.194    66.7975   -22.2454   -41.1655   119.9771     2.6000    -2.0000   -34.2897    39.0000    30.0000    30.0000    39.0000    10.0000    30.0000    30.0000    30.0000    86.3046    -1.0000     0.0000    -0.0010     0.0000   159.4104   -41.1799     3.6428     2.9900     0.0000    -0.8045    14.7005    14.6907     0.0098     1.0000     1.0000     1.000
      5   141.0235      1.000   2084.000  13453.000      5.123    66.7975   -22.2454   -41.1655   119.9771     2.6000    -2.0000   -34.2897    39.0000    30.0000    30.0000    39.0000    10.0000    30.0000    30.0000    30.0000    86.3046    -1.0000     0.0000    -0.0010     0.0000   159.4104   -41.1799     3.6428     2.9904    -0.0000    -0.7873    14.7005    14.6907     0.0098     1.0000     1.0000     1.000
      6   140.9235      1.000   2056.000  13739.000      5.232    66.7975   -22.2454   -41.1655   119.9771     2.6000    -2.0000   -34.2897    39.0000    30.0000    30.0000    39.0000    10.0000    30.0000    30.0000    30.0000    86.3046    -1.0000     0.0000    -0.0010     0.0000   159.4104   -41.1799     3.6428     2.9908     0.0000    -0.7702    14.7005    14.6907     0.0098     1.0000     1.0000     1.000
      7   140.8235      1.000   2110.000  13499.000      5.141    66.7975   -22.2454   -41.1655   119.9771     2.6000    -2.0000   -34.2897    39.0000    30.0000    30.0000    39.0000    10.0000    30.0000    30.0000    30.0000    86.3046    -1.0000     0.0000    -0.0010     0.0000   159.4104   -41.1799     3.6428     2.9912    -0.0000    -0.7530    14.7005    14.6907     0.0098     1.0000     1.0000     1.000
      8   140.7235      1.000   2210.000  13562.000      5.165    66.7975   -22.2454   -41.1655   119.9771     2.6000    -2.0000   -34.2897    39.0000    30.0000    30.0000    39.0000    10.0000    30.0000    30.0000    30.0000    86.3046    -1.0000     0.0000    -0.0010     0.0000   159.4104   -41.1799     3.6428     2.9916    -0.0000    -0.7359    14.7005    14.6907     0.0098     1.0000     1.0000     1.000
      9   140.6235      1.000   2178.000  13568.000      5.167    66.7975   -22.2454   -41.1655   119.9771     2.6000    -2.0000   -34.2897    39.0000    30.0000    30.0000    39.0000    10.0000    30.0000    30.0000    30.0000    86.3046    -1.0000     0.0000    -0.0010     0.0000   159.4104   -41.1799     3.6428     2.9920    -0.0000    -0.7187    14.7005    14.6907     0.0098     1.0000     1.0000     1.000
     10   140.5235      1.000   2200.000  13724.000      5.226    66.7975   -22.2454   -41.1655   119.9771     2.6000    -2.0000   -34.2897    39.0000    30.0000    30.0000    39.0000    10.0000    30.0000    30.0000    30.0000    86.3046    -1.0000     0.0000    -0.0010     0.0000   159.4104   -41.1799     3.6428     2.9924     0.0000    -0.7016    14.7005    14.6907     0.0098     1.0000     1.0000     1.000
     11   140.4235      1.000   2240.000  13378.000      5.094    66.7975   -22.2454   -41.1655   119.9771     2.6000    -2.0000   -34.2897    39.0000    30.0000    30.0000    39.0000    10.0000    30.0000    30.0000    30.0000    86.3046    -1.0000     0.0000    -0.0010     0.0000   159.4104   -41.1799     3.6428     2.9928     0.0000    -0.6844    14.7005    14.6907     0.0098     1.0000     1.0000     1.000
     12   140.3235      1.000   2352.000  13499.000      5.141    66.7975   -22.2454   -41.1655   119.9771     2.6000    -2.0000   -34.2897    39.0000    30.0000    30.0000    39.0000    10.0000    30.0000    30.0000    30.0000    86.3046    -1.0000     0.0000    -0.0010     0.0000   159.4104   -41.1799     3.6428     2.9931     0.0000    -0.6672    14.7005    14.6907     0.0098     1.0000     1.0000     1.000
     13   140.2235      1.000   2261.000  13515.000      5.147    66.7975   -22.2454   -41.1655   119.9771     2.6000    -2.0000   -34.2897    39.0000    30.0000    30.0000    39.0000    10.0000    30.0000    30.0000    30.0000    86.3046    -1.0000     0.0000    -0.0010     0.0000   159.4104   -41.1799     3.6428     2.9935    -0.0000    -0.6501    14.7005    14.6907     0.0098     1.0000     1.0000     1.000
     14   140.1235      1.000   2439.000  13518.000      5.148    66.7975   -22.2454   -41.1655   119.9771     2.6000    -2.0000   -34.2897    39.0000    30.0000    30.0000    39.0000    10.0000    30.0000    30.0000    30.0000    86.3046    -1.0000     0.0000    -0.0010     0.0000   159.4104   -41.1799     3.6428     2.9938    -0.0000    -0.6329    14.7005    14.6907     0.0098     1.0000     1.0000     1.000
     15   140.0235      1.000   2736.000  13537.000      5.155    66.7975   -22.2454   -41.1655   119.9771     2.6000    -2.0000   -34.2897    39.0000    30.0000    30.0000    39.0000    10.0000    30.0000    30.0000    30.0000    86.3046    -1.0000     0.0000    -0.0010     0.0000   159.4104   -41.1799     3.6428     2.9941     0.0000    -0.6157    14.7005    14.6907     0.0098     1.0000     1.0000     1.000
     16   139.9235      1.000   3043.000  13467.000      5.128    66.7975   -22.2454   -41.1655   119.9771     2.6000    -2.0000   -34.2897    39.0000    30.0000    30.0000    39.0000    10.0000    30.0000    30.0000    30.0000    86.3046    -1.0000     0.0000    -0.0010     0.0000   159.4104   -41.1799     3.6428     2.9945    -0.0000    -0.5986    14.7005    14.6907     0.0098     1.0000     1.0000     1.000
     17   139.8235      1.000   3376.000  13709.000      5.220    66.7975   -22.2454   -41.1655   119.9771     2.6000    -2.0000   -34.2897    39.0000    30.0000    30.0000    39.0000    10.0000    30.0000    30.0000    30.0000    86.3046    -1.0000     0.0000    -0.0010     0.0000   159.4104   -41.1799     3.6428     2.9948     0.0000    -0.5814    14.7005    14.6907     0.0098     1.0000     1.0000     1.000
     18   139.7235      1.000   3770.000  13503.000      5.142    66.7975   -22.2454   -41.1655   119.9771     2.6000    -2.0000   -34.2897    39.0000    30.0000    30.0000    39.0000    10.0000    30.0000    30.0000    30.0000    86.3046    -1.0000     0.0000    -0.0010     0.0000   159.4104   -41.1799     3.6428     2.9951    -0.0000    -0.5642    14.7005    14.6907     0.0098     1.0000     1.0000     1.000
     19   139.6235      1.000   4271.000  13535.000      5.154    66.7975   -22.2454   -41.1655   119.9771     2.6000    -2.0000   -34.2897    39.0000    30.0000    30.0000    39.0000    10.0000    30.0000    30.0000    30.0000    86.3046    -1.0000     0.0000    -0.0010     0.0000   159.4104   -41.1799     3.6428     2.9954    -0.0000    -0.5470    14.7005    14.6907     0.0098     1.0000     1.0000     1.000
     20   139.5235      1.000   4862.000  13587.000      5.174    66.7975   -22.2454   -41.1655   119.9771     2.6000    -2.0000   -34.2897    39.0000    30.0000    30.0000    39.0000    10.0000    30.0000    30.0000    30.0000    86.3046    -1.0000     0.0000    -0.0010     0.0000   159.4104   -41.1799     3.6428     2.9957     0.0000    -0.5299    14.7005    14.6907     0.0098     1.0000     1.0000     1.000
     21   139.4235      1.000   5439.000  13448.000      5.121    66.7975   -22.2454   -41.1655   119.9771     2.6000    -2.0000   -34.2897    39.0000    30.0000    30.0000    39.0000    10.0000    30.0000    30.0000    30.0000    86.3046    -1.0000     0.0000    -0.0010     0.0000   159.4104   -41.1799     3.6428     2.9959    -0.0000    -0.5127    14.7005    14.6907     0.0098     1.0000     1.0000     1.000
     22   139.3235      1.000   6567.000  13543.000      5.157    66.7975   -22.2454   -41.1655   119.9771     2.6000    -2.0000   -34.2897    39.0000    30.0000    30.0000    39.0000    10.0000    30.0000    30.0000    30.0000    86.3046    -1.0000     0.0000    -0.0010     0.0000   159.4104   -41.1799     3.6428     2.9962     0.0000    -0.4955    14.7005    14.6907     0.0098     1.0000     1.0000     1.000
     23   139.2235      1.000   7982.000  13711.000      5.221    66.7975   -22.2454   -41.1655   119.9771     2.6000    -2.0000   -34.2897    39.0000    30.0000    30.0000    39.0000    10.0000    30.0000    30.0000    30.0000    86.3046    -1.0000     0.0000    -0.0010     0.0000   159.4104   -41.1799     3.6428     2.9965     0.0000    -0.4783    14.7005    14.6907     0.0098     1.0000     1.0000     1.000
     24   139.1235      1.000  13082.000  13492.000      5.138    66.7975   -22.2454   -41.1655   119.9771     2.6000    -2.0000   -34.2897    39.0000    30.0000    30.0000    39.0000    10.0000    30.0000    30.0000    30.0000    86.3046    -1.0000     0.0000    -0.0010     0.0000   159.4104   -41.1799     3.6428     2.9967     0.0000    -0.4611    14.7005    14.6907     0.0098     1.0000     1.0000     1.000
     25   139.0235      1.000  23168.000  13650.000      5.198    66.7975   -22.2454   -41.1655   119.9771     2.6000    -2.0000   -34.2897    39.0000    30.0000    30.0000    39.0000    10.0000    30.0000    30.0000    30.0000    86.3046    -1.0000     0.0000    -0.0010     0.0000   159.4104   -41.1799     3.6428     2.9970    -0.0000    -0.4440    14.7005    14.6907     0.0098     1.0000     1.0000     1.000
     26   138.9235      1.000  38960.000  13495.000      5.139    66.7975   -22.2454   -41.1655   119.9771     2.6000    -2.0000   -34.2897    39.0000    30.0000    30.0000    39.0000    10.0000    30.0000    30.0000    30.0000    86.3046    -1.0000     0.0000    -0.0010     0.0000   159.4104   -41.1799     3.6428     2.9972     0.0000    -0.4268    14.7005    14.6907     0.0098     1.0000     1.0000     1.000
     27   138.8235      1.000  55335.000  13662.000      5.203    66.7975   -22.2454   -41.1655   119.9771     2.6000    -2.0000   -34.2897    39.0000    30.0000    30.0000    39.0000    10.0000    30.0000    30.0000    30.0000    86.3046    -1.0000     0.0000    -0.0010     0.0000   159.4104   -41.1799     3.6428     2.9974     0.0000    -0.4096    14.7005    14.6907     0.0098     1.0000     1.0000     1.000
     28   138.7235      1.000  66308.000  13683.000      5.211    66.7975   -22.2454   -41.1655   119.9771     2.6000    -2.0000   -34.2897    39.0000    30.0000    30.0000    39.0000    10.0000    30.0000    30.0000    30.0000    86.3046    -1.0000     0.0000    -0.0010     0.0000   159.4104   -41.1799     3.6428     2.9976     0.0000    -0.3924    14.7005    14.6907     0.0098     1.0000     1.0000     1.000
     29   138.6235      1.000  70304.000  13595.000      5.177    66.7975   -22.2454   -41.1655   119.9771     2.6000    -2.0000   -34.2897    39.0000    30.0000    30.0000    39.0000    10.0000    30.0000    30.0000    30.0000    86.3046    -1.0000     0.0000    -0.0010     0.0000   159.4104   -41.1799     3.6428     2.9978     0.0000    -0.3752    14.7005    14.6907     0.0098     1.0000     1.0000     1.000
     30   138.5235      1.000  69415.000  13775.000      5.246    66.7975   -22.2454   -41.1655   119.9771     2.6000    -2.0000   -34.2897    39.0000    30.0000    30.0000    39.0000    10.0000    30.0000    30.0000    30.0000    86.3046    -1.0000     0.0000    -0.0010     0.0000   159.4104   -41.1799     3.6428     2.9980     0.0000    -0.3580    14.7005    14.6907     0.0098     1.0000     1.0000     1.000
     31   138.4235      1.000  65289.000  13838.000      5.270    66.7975   -22.2454   -41.1655   119.9771     2.6000    -2.0000   -34.2897    39.0000    30.0000    30.0000    39.0000    10.0000    30.0000    30.0000    30.0000    86.3046    -1.0000     0.0000    -0.0010     0.0000   159.4104   -41.1799     3.6428     2.9982    -0.0000    -0.3408    14.7005    14.6907     0.0098     1.0000     1.0000     1.000
     32   138.3235      1.000  60749.000  13576.000      5.170    66.7975   -22.2454   -41.1655   119.9771     2.6000    -2.0000   -34.2897    39.0000    30.0000    30.0000    39.0000    10.0000    30.0000    30.0000    30.0000    86.3046    -1.0000     0.0000    -0.0010     0.0000   159.4104   -41.1799     3.6428     2.9984     0.0000    -0.3236    14.7005    14.6907     0.0098     1.0000     1.0000     1.000
     33   138.2235      1.000  56480.000  13673.000      5.207    66.7975   -22.2454   -41.1655   119.9771     2.6000    -2.0000   -34.2897    39.0000    30.0000    30.0000    39.0000    10.0000    30.0000    30.0000    30.0000    86.3046    -1.0000     0.0000    -0.0010     0.0000   159.4104   -41.1799     3.6428     2.9986     0.0000    -0.3064    14.7005    14.6907     0.0098     1.0000     1.0000     1.000
     34   138.1235      1.000  52559.000  13731.000      5.229    66.7975   -22.2454   -41.1655   119.9771     2.6000    -2.0000   -34.2897    39.0000    30.0000    30.0000    39.0000    10.0000    30.0000    30.0000    30.0000    86.3046    -1.0000     0.0000    -0.0010     0.0000   159.4104   -41.1799     3.6428     2.9987     0.0000    -0.2893    14.7005    14.6907     0.0098     1.0000     1.0000     1.000
     35   138.0235      1.000  49843.000  13606.000      5.181    66.7975   -22.2454   -41.1655   119.9771     2.6000    -2.0000   -34.2897    39.0000    30.0000    30.0000    39.0000    10.0000    30.0000    30.0000    30.0000    86.3046    -1.0000     0.0000    -0.0010     0.0000   159.4104   -41.1799     3.6428     2.9989     0.0000    -0.2721    14.7005    14.6907     0.0098     1.0000     1.0000     1.000
     36   137.9235      1.000  47326.000  13630.000      5.190    66.7975   -22.2454   -41.1655   119.9771     2.6000    -2.0000   -34.2897    39.0000    30.0000    30.0000    39.0000    10.0000    30.0000    30.0000    30.0000    86.3046    -1.0000     0.0000    -0.0010     0.0000   159.4104   -41.1799     3.6428     2.9990     0.0000    -0.2549    14.7005    14.6907     0.0098     1.0000     1.0000     1.000
     37   137.8235      1.000  46028.000  13566.000      5.166    66.7975   -22.2454   -41.1655   119.9771     2.6000    -2.0000   -34.2897    39.0000    30.0000    30.0000    39.0000    10.0000    30.0000    30.0000    30.0000    86.3046    -1.0000     0.0000    -0.0010     0.0000   159.4104   -41.1799     3.6428     2.9991     0.0000    -0.2377    14.7005    14.6907     0.0098     1.0000     1.0000     1.000
     38   137.7235      1.000  45593.000  13620.000      5.187    66.7975   -22.2454   -41.1655   119.9771     2.6000    -2.0000   -34.2897    39.0000    30.0000    30.0000    39.0000    10.0000    30.0000    30.0000    30.0000    86.3046    -1.0000     0.0000    -0.0010     0.0000   159.4104   -41.1799     3.6428     2.9993    -0.0000    -0.2205    14.7005    14.6907     0.0098     1.0000     1.0000     1.000
     39   137.6235      1.000  45575.000  13623.000      5.188    66.7975   -22.2454   -41.1655   119.9771     2.6000    -2.0000   -34.2897    39.0000    30.0000    30.0000    39.0000    10.0000    30.0000    30.0000    30.0000    86.3046    -1.0000     0.0000    -0.0010     0.0000   159.4104   -41.1799     3.6428     2.9994     0.0000    -0.2033    14.7005    14.6907     0.0098     1.0000     1.0000     1.000
     40   137.5235      1.000  45493.000  13721.000      5.225    66.7975   -22.2454   -41.1655   119.9771     2.6000    -2.0000   -34.2897    39.0000    30.0000    30.0000    39.0000    10.0000    30.0000    30.0000    30.0000    86.3046    -1.0000     0.0000    -0.0010     0.0000   159.4104   -41.1799     3.6428     2.9995     0.0000    -0.1861    14.7005    14.6907     0.0098     1.0000     1.0000     1.000
     41   137.4235      1.000  45657.000  13520.000      5.149    66.7975   -22.2454   -41.1655   119.9771     2.6000    -2.0000   -34.2897    39.0000    30.0000    30.0000    39.0000    10.0000    30.0000    30.0000    30.0000    86.3046    -1.0000     0.0000    -0.0010     0.0000   159.4104   -41.1799     3.6428     2.9996     0.0000    -0.1689    14.7005    14.6907     0.0098     1.0000     1.0000     1.000
     42   137.3235      1.000  45413.000  13613.000      5.184    66.7975   -22.2454   -41.1655   119.9771     2.6000    -2.0000   -34.2897    39.0000    30.0000    30.0000    39.0000    10.0000    30.0000    30.0000    30.0000    86.3046    -1.0000     0.0000    -0.0010     0.0000   159.4104   -41.1799     3.6428     2.9997     0.0000    -0.1517    14.7005    14.6907     0.0098     1.0000     1.0000     1.000
     43   137.2235      1.000  46212.000  13676.000      5.208    66.7975   -22.2454   -41.1655   119.9771     2.6000    -2.0000   -34.2897    39.0000    30.0000    30.0000    39.0000    10.0000    30.0000    30.0000    30.0000    86.3046    -1.0000     0.0000    -0.0010     0.0000   159.4104   -41.1799     3.6428     2.9997     0.0000    -0.1345    14.7005    14.6907     0.0098     1.0000     1.0000     1.000
     44   137.1235      1.000  46758.000  13449.000      5.121    66.7975   -22.2454   -41.1655   119.9771     2.6000    -2.0000   -34.2897    39.0000    30.0000    30.0000    39.0000    10.0000    30.0000    30.0000    30.0000    86.3046    -1.0000     0.0000    -0.0010     0.0000   159.4104   -41.1799     3.6428     2.9998    -0.0000    -0.1173    14.7005    14.6907     0.0098     1.0000     1.0000     1.000
     45   137.0235      1.000  49302.000  13473.000      5.131    66.7975   -22.2454   -41.1655   119.9771     2.6000    -2.0000   -34.2897    39.0000    30.0000    30.0000    39.0000    10.0000    30.0000    30.0000    30.0000    86.3046    -1.0000     0.0000    -0.0010     0.0000   159.4104   -41.1799     3.6428     2.9999     0.0000    -0.1001    14.7005    14.6907     0.0098     1.0000     1.0000     1.000
     46   136.9235      1.000  53279.000  13589.000      5.175    66.7975   -22.2454   -41.1655   119.9771     2.6000    -2.0000   -34.2897    39.0000    30.0000    30.0000    39.0000    10.0000    30.0000    30.0000    30.0000    86.3046    -1.0000     0.0000    -0.0010     0.0000   159.4104   -41.1799     3.6428     2.9999    -0.0000    -0.0829    14.7005    14.6907     0.0098     1.0000     1.0000     1.000
     47   136.8235      1.000  59195.000  13721.000      5.225    66.7975   -22.2454   -41.1655   119.9771     2.6000    -2.0000   -34.2897    39.0000    30.0000    30.0000    39.0000    10.0000    30.0000    30.0000    30.0000    86.3046    -1.0000     0.0000    -0.0010     0.0000   159.4104   -41.1799     3.6428     2.9999     0.0000    -0.0657    14.7005    14.6907     0.0098     1.0000     1.0000     1.000
     48   136.7235      1.000  65716.000  13800.000      5.255    66.7975   -22.2454   -41.1655   119.9771     2.6000    -2.0000   -34.2897    39.0000    30.0000    30.0000    39.0000    10.0000    30.0000    30.0000    30.0000    86.3046    -1.0000     0.0000    -0.0010     0.0000   159.4104   -41.1799     3.6428     3.0000     0.0000    -0.0485    14.7005    14.6907     0.0098     1.0000     1.0000     1.000
     49   136.6235      1.000  74691.000  13858.000      5.277    66.7975   -22.2454   -41.1655   119.9771     2.6000    -2.0000   -34.2897    39.0000    30.0000    30.0000    39.0000    10.0000    30.0000    30.0000    30.0000    86.3046    -1.0000     0.0000    -0.0010     0.0000   159.4104   -41.1799     3.6428     3.0000    -0.0000    -0.0313    14.7005    14.6907     0.0098     1.0000     1.0000     1.000
     50   136.5235      1.000  86537.000  13593.000      5.176    66.7975   -22.2454   -41.1655   119.9771     2.6000    -2.0000   -34.2897    39.0000    30.0000    30.0000    39.0000    10.0000    30.0000    30.0000    30.0000    86.3046    -1.0000     0.0000    -0.0010     0.0000   159.4104   -41.1799     3.6428     3.0000     0.0000    -0.0141    14.7005    14.6907     0.0098     1.0000     1.0000     1.000
     51   136.4235      1.000 102071.000  13641.000      5.195    66.7975   -22.2454   -41.1655   119.9771     2.6000    -2.0000   -34.2897    39.0000    30.0000    30.0000    39.0000    10.0000    30.0000    30.0000    30.0000    86.3046    -1.0000     0.0000    -0.0010     0.0000   159.4104   -41.1799     3.6428     3.0000    -0.0000     0.0031    14.7005    14.6907     0.0098     1.0000     1.0000     1.000
     52   136.3235      1.000 115605.000  13673.000      5.207    66.7975   -22.2454   -41.1655   119.9771     2.6000    -2.0000   -34.2897    39.0000    30.0000    30.0000    39.0000    10.0000    30.0000    30.0000    30.0000    86.3046    -1.0000     0.0000    -0.0010     0.0000   159.4104   -41.1799     3.6428     3.0000    -0.0000     0.0203    14.7005    14.6907     0.0098     1.0000     1.0000     1.000
     53   136.2235      1.000 121998.000  13642.000      5.195    66.7975   -22.2454   -41.1655   119.9771     2.6000    -2.0000   -34.2897    39.0000    30.0000    30.0000    39.0000    10.0000    30.0000    30.0000    30.0000    86.3046    -1.0000     0.0000    -0.0010     0.0000   159.4104   -41.1799     3.6428     3.0000     0.0000     0.0375    14.7005    14.6907     0.0098     1.0000     1.0000     1.000
     54   136.1235      1.000 119833.000  13627.000      5.189    66.7975   -22.2454   -41.1655   119.9771     2.6000    -2.0000   -34.2897    39.0000    30.0000    30.0000    39.0000    10.0000    30.0000    30.0000    30.0000    86.3046    -1.0000     0.0000    -0.0010     0.0000   159.4104   -41.1799     3.6428     3.0000    -0.0000     0.0547    14.7005    14.6907     0.0098     1.0000     1.0000     1.000
     55   136.0235      1.000 108671.000  13654.000      5.200    66.7975   -22.2454   -41.1655   119.9771     2.6000    -2.0000   -34.2897    39.0000    30.0000    30.0000    39.0000    10.0000    30.0000    30.0000    30.0000    86.3046    -1.0000     0.0000    -0.0010     0.0000   159.4104   -41.1799     3.6428     2.9999     0.0000     0.0719    14.7005    14.6907     0.0098     1.0000     1.0000     1.000
     56   135.9235      1.000  89855.000  13620.000      5.187    66.7975   -22.2454   -41.1655   119.9771     2.6000    -2.0000   -34.2897    39.0000    30.0000    30.0000    39.0000    10.0000    30.0000    30.0000    30.0000    86.3046    -1.0000     0.0000    -0.0010     0.0000   159.4104   -41.1799     3.6428     2.9999    -0.0000     0.0891    14.7005    14.6907     0.0098     1.0000     1.0000     1.000
     57   135.8235      1.000  68675.000  13724.000      5.226    66.7975   -22.2454   -41.1655   119.9771     2.6000    -2.0000   -34.2897    39.0000    30.0000    30.0000    39.0000    10.0000    30.0000    30.0000    30.0000    86.3046    -1.0000     0.0000    -0.0010     0.0000   159.4104   -41.1799     3.6428     2.9998     0.0000     0.1064    14.7005    14.6907     0.0098     1.0000     1.0000     1.000
     58   135.7235      1.000  48838.000  13622.000      5.187    66.7975   -22.2454   -41.1655   119.9771     2.6000    -2.0000   -34.2897    39.0000    30.0000    30.0000    39.0000    10.0000    30.0000    30.0000    30.0000    86.3046    -1.0000     0.0000    -0.0010     0.0000   159.4104   -41.1799     3.6428     2.9998    -0.0000     0.1236    14.7005    14.6907     0.0098     1.0000     1.0000     1.000
     59   135.6235      1.000  33830.000  13532.000      5.153    66.7975   -22.2454   -41.1655   119.9771     2.6000    -2.0000   -34.2897    39.0000    30.0000    30.0000    39.0000    10.0000    30.0000    30.0000    30.0000    86.3046    -1.0000     0.0000    -0.0010     0.0000   159.4104   -41.1799     3.6428     2.9997     0.0000     0.1408    14.7005    14.6907     0.0098     1.0000     1.0000     1.000
     60   135.5235      1.000  24531.000  13666.000      5.204    66.7975   -22.2454   -41.1655   119.9771     2.6000    -2.0000   -34.2897    39.0000    30.0000    30.0000    39.0000    10.0000    30.0000    30.0000    30.0000    86.3046    -1.0000     0.0000    -0.0010     0.0000   159.4104   -41.1799     3.6428     2.9996     0.0000     0.1580    14.7005    14.6907     0.0098     1.0000     1.0000     1.000
     61   135.4235      1.000  18851.000  13253.000      5.047    66.7975   -22.2454   -41.1655   119.9771     2.6000    -2.0000   -34.2897    39.0000    30.0000    30.0000    39.0000    10.0000    30.0000    30.0000    30.0000    86.3046    -1.0000     0.0000    -0.0010     0.0000   159.4104   -41.1799     3.6428     2.9995     0.0000     0.1752    14.7005    14.6907     0.0098     1.0000     1.0000     1.000
     62   135.3235      1.000  15663.000  13600.000      5.179    66.7975   -22.2454   -41.1655   119.9771     2.6000    -2.0000   -34.2897    39.0000    30.0000    30.0000    39.0000    10.0000    30.0000    30.0000    30.0000    86.3046    -1.0000     0.0000    -0.0010     0.0000   159.4104   -41.1799     3.6428     2.9994     0.0000     0.1924    14.7005    14.6907     0.0098     1.0000     1.0000     1.000
     63   135.2235      1.000  12989.000  13555.000      5.162    66.7975   -22.2454   -41.1655   119.9771     2.6000    -2.0000   -34.2897    39.0000    30.0000    30.0000    39.0000    10.0000    30.0000    30.0000    30.0000    86.3046    -1.0000     0.0000    -0.0010     0.0000   159.4104   -41.1799     3.6428     2.9993     0.0000     0.2095    14.7005    14.6907     0.0098     1.0000     1.0000     1.000
     64   135.1235      1.000  11307.000  13537.000      5.155    66.7975   -22.2454   -41.1655   119.9771     2.6000    -2.0000   -34.2897    39.0000    30.0000    30.0000    39.0000    10.0000    30.0000    30.0000    30.0000    86.3046    -1.0000     0.0000    -0.0010     0.0000   159.4104   -41.1799     3.6428     2.9992     0.0000     0.2267    14.7005    14.6907     0.0098     1.0000     1.0000     1.000
     65   135.0235      1.000   9666.000  13683.000      5.211    66.7975   -22.2454   -41.1655   119.9771     2.6000    -2.0000   -34.2897    39.0000    30.0000    30.0000    39.0000    10.0000    30.0000    30.0000    30.0000    86.3046    -1.0000     0.0000    -0.0010     0.0000   159.4104   -41.1799     3.6428     2.9991     0.0000     0.2439    14.7005    14.6907     0.0098     1.0000     1.0000     1.000
     66   134.9235      1.000   8458.000  13531.000      5.153    66.7975   -22.2454   -41.1655   119.9771     2.6000    -2.0000   -34.2897    39.0000    30.0000    30.0000    39.0000    10.0000    30.0000    30.0000    30.0000    86.3046    -1.0000     0.0000    -0.0010     0.0000   159.4104   -41.1799     3.6428     2.9990    -0.0000     0.2611    14.7005    14.6907     0.0098     1.0000     1.0000     1.000
     67   134.8235      1.000   7519.000  13558.000      5.163    66.7975   -22.2454   -41.1655   119.9771     2.6000    -2.0000   -34.2897    39.0000    30.0000    30.0000    39.0000    10.0000    30.0000    30.0000    30.0000    86.3046    -1.0000     0.0000    -0.0010     0.0000   159.4104   -41.1799     3.6428     2.9988     0.0000     0.2783    14.7005    14.6907     0.0098     1.0000     1.0000     1.000
     68   134.7235      1.000   6498.000  13475.000      5.131    66.7975   -22.2454   -41.1655   119.9771     2.6000    -2.0000   -34.2897    39.0000    30.0000    30.0000    39.0000    10.0000    30.0000    30.0000    30.0000    86.3046    -1.0000     0.0000    -0.0010     0.0000   159.4104   -41.1799     3.6428     2.9987     0.0000     0.2955    14.7005    14.6907     0.0098     1.0000     1.0000     1.000
     69   134.6235      1.000   5600.000  13541.000      5.157    66.7975   -22.2454   -41.1655   119.9771     2.6000    -2.0000   -34.2897    39.0000    30.0000    30.0000    39.0000    10.0000    30.0000    30.0000    30.0000    86.3046    -1.0000     0.0000    -0.0010     0.0000   159.4104   -41.1799     3.6428     2.9985     0.0000     0.3127    14.7005    14.6907     0.0098     1.0000     1.0000     1.000
     70   134.5235      1.000   4932.000  13466.000      5.128    66.7975   -22.2454   -41.1655   119.9771     2.6000    -2.0000   -34.2897    39.0000    30.0000    30.0000    39.0000    10.0000    30.0000    30.0000    30.0000    86.3046    -1.0000     0.0000    -0.0010     0.0000   159.4104   -41.1799     3.6428     2.9983     0.0000     0.3299    14.7005    14.6907     0.0098     1.0000     1.0000     1.000
     71   134.4235      1.000   4211.000  13503.000      5.142    66.7975   -22.2454   -41.1655   119.9771     2.6000    -2.0000   -34.2897    39.0000    30.0000    30.0000    39.0000    10.0000    30.0000    30.0000    30.0000    86.3046    -1.0000     0.0000    -0.0010     0.0000   159.4104   -41.1799     3.6428     2.9981     0.0000     0.3471    14.7005    14.6907     0.0098     1.0000     1.0000     1.000
     72   134.3235      1.000   3779.000  13689.000      5.213    66.7975   -22.2454   -41.1655   119.9771     2.6000    -2.0000   -34.2897    39.0000    30.0000    30.0000    39.0000    10.0000    30.0000    30.0000    30.0000    86.3046    -1.0000     0.0000    -0.0010     0.0000   159.4104   -41.1799     3.6428     2.9980     0.0000     0.3643    14.7005    14.6907     0.0098     1.0000     1.0000     1.000
     73   134.2235      1.000   3505.000  13618.000      5.186    66.7975   -22.2454   -41.1655   119.9771     2.6000    -2.0000   -34.2897    39.0000    30.0000    30.0000    39.0000    10.0000    30.0000    30.0000    30.0000    86.3046    -1.0000     0.0000    -0.0010     0.0000   159.4104   -41.1799     3.6428     2.9978     0.0000     0.3815    14.7005    14.6907     0.0098     1.0000     1.0000     1.000
     74   134.1235      1.000   3212.000  13294.000      5.062    66.7975   -22.2454   -41.1655   119.9771     2.6000    -2.0000   -34.2897    39.0000    30.0000    30.0000    39.0000    10.0000    30.0000    30.0000    30.0000    86.3046    -1.0000     0.0000    -0.0010     0.0000   159.4104   -41.1799     3.6428     2.9976     0.0000     0.3987    14.7005    14.6907     0.0098     1.0000     1.0000     1.000
     75   134.0235      1.000   2906.000  13571.000      5.168    66.7975   -22.2454   -41.1655   119.9771     2.6000    -2.0000   -34.2897    39.0000    30.0000    30.0000    39.0000    10.0000    30.0000    30.0000    30.0000    86.3046    -1.0000     0.0000    -0.0010     0.0000   159.4104   -41.1799     3.6428     2.9973     0.0000     0.4159    14.7005    14.6907     0.0098     1.0000     1.0000     1.000
     76   133.9235      1.000   2833.000  13346.000      5.082    66.7975   -22.2454   -41.1655   119.9771     2.6000    -2.0000   -34.2897    39.0000    30.0000    30.0000    39.0000    10.0000    30.0000    30.0000    30.0000    86.3046    -1.0000     0.0000    -0.0010     0.0000   159.4104   -41.1799     3.6428     2.9971     0.0000     0.4331    14.7005    14.6907     0.0098     1.0000     1.0000     1.000
     77   133.8235      1.000   2547.000  13519.000      5.148    66.7975   -22.2454   -41.1655   119.9771     2.6000    -2.0000   -34.2897    39.0000    30.0000    30.0000    39.0000    10.0000    30.0000    30.0000    30.0000    86.3046    -1.0000     0.0000    -0.0010     0.0000   159.4104   -41.1799     3.6428     2.9969     0.0000     0.4502    14.7005    14.6907     0.0098     1.0000     1.0000     1.000
     78   133.7235      1.000   2537.000  13547.000      5.159    66.7975   -22.2454   -41.1655   119.9771     2.6000    -2.0000   -34.2897    39.0000    30.0000    30.0000    39.0000    10.0000    30.0000    30.0000    30.0000    86.3046    -1.0000     0.0000    -0.0010     0.0000   159.4104   -41.1799     3.6428     2.9966     0.0000     0.4674    14.7005    14.6907     0.0098     1.0000     1.0000     1.000
     79   133.6235      1.000   2379.000  13671.000      5.206    66.7975   -22.2454   -41.1655   119.9771     2.6000    -2.0000   -34.2897    39.0000    30.0000    30.0000    39.0000    10.0000    30.0000    30.0000    30.0000    86.3046    -1.0000     0.0000    -0.0010     0.0000   159.4104   -41.1799     3.6428     2.9964     0.0000     0.4846    14.7005    14.6907     0.0098     1.0000     1.0000     1.000
     80   133.5235      1.000   2425.000  13538.000      5.155    66.7975   -22.2454   -41.1655   119.9771     2.6000    -2.0000   -34.2897    39.0000    30.0000    30.0000    39.0000    10.0000    30.0000    30.0000    30.0000    86.3046    -1.0000     0.0000    -0.0010     0.0000   159.4104   -41.1799     3.6428     2.9961     0.0000     0.5018    14.7005    14.6907     0.0098     1.0000     1.0000     1.000
     81   133.4235      1.000   2379.000  13658.000      5.201    66.7975   -22.2454   -41.1655   119.9771     2.6000    -2.0000   -34.2897    39.0000    30.0000    30.0000    39.0000    10.0000    30.0000    30.0000    30.0000    86.3046    -1.0000     0.0000    -0.0010     0.0000   159.4104   -41.1799     3.6428     2.9958     0.0000     0.5190    14.7005    14.6907     0.0098     1.0000     1.0000     1.000
     82   133.3235      1.000   2274.000  13525.000      5.150    66.7975   -22.2454   -41.1655   119.9771     2.6000    -2.0000   -34.2897    39.0000    30.0000    30.0000    39.0000    10.0000    30.0000    30.0000    30.0000    86.3046    -1.0000     0.0000    -0.0010     0.0000   159.4104   -41.1799     3.6428     2.9956     0.0000     0.5361    14.7005    14.6907     0.0098     1.0000     1.0000     1.000
     83   133.2235      1.000   2157.000  13545.000      5.158    66.7975   -22.2454   -41.1655   119.9771     2.6000    -2.0000   -34.2897    39.0000    30.0000    30.0000    39.0000    10.0000    30.0000    30.0000    30.0000    86.3046    -1.0000     0.0000    -0.0010     0.0000   159.4104   -41.1799     3.6428     2.9953     0.0000     0.5533    14.7005    14.6907     0.0098     1.0000     1.0000     1.000
     84   133.1235      1.000   2088.000  13493.000      5.138    66.7975   -22.2454   -41.1655   119.9771     2.6000    -2.0000   -34.2897    39.0000    30.0000    30.0000    39.0000    10.0000    30.0000    30.0000    30.0000    86.3046    -1.0000     0.0000    -0.0010     0.0000   159.4104   -41.1799     3.6428     2.9950     0.0000     0.5705    14.7005    14.6907     0.0098     1.0000     1.0000     1.000
     85   133.0235      1.000   1830.000  13504.000      5.142    66.7975   -22.2454   -41.1655   119.9771     2.6000    -2.0000   -34.2897    39.0000    30.0000    30.0000    39.0000    10.0000    30.0000    30.0000    30.0000    86.3046    -1.0000     0.0000    -0.0010     0.0000   159.4104   -41.1799     3.6428     2.9947     0.0000     0.5877    14.7005    14.6907     0.0098     1.0000     1.0000     1.000
     86   132.9235      1.000   1872.000  13560.000      5.164    66.7975   -22.2454   -41.1655   119.9771     2.6000    -2.0000   -34.2897    39.0000    30.0000    30.0000    39.0000    10.0000    30.0000    30.0000    30.0000    86.3046    -1.0000     0.0000    -0.0010     0.0000   159.4104   -41.1799     3.6428     2.9944     0.0000     0.6048    14.7005    14.6907     0.0098     1.0000     1.0000     1.000
     87   132.8235      1.000   1825.000  13560.000      5.164    66.7975   -22.2454   -41.1655   119.9771     2.6000    -2.0000   -34.2897    39.0000    30.0000    30.0000    39.0000    10.0000    30.0000    30.0000    30.0000    86.3046    -1.0000     0.0000    -0.0010     0.0000   159.4104   -41.1799     3.6428     2.9940     0.0000     0.6220    14.7005    14.6907     0.0098     1.0000     1.0000     1.000
     88   132.7235      1.000   1802.000  13593.000      5.176    66.7975   -22.2454   -41.1655   119.9771     2.6000    -2.0000   -34.2897    39.0000    30.0000    30.0000    39.0000    10.0000    30.0000    30.0000    30.0000    86.3046    -1.0000     0.0000    -0.0010     0.0000   159.4104   -41.1799     3.6428     2.9937     0.0000     0.6392    14.7005    14.6907     0.0098     1.0000     1.0000     1.000
     89   132.6235      1.000   1837.000  13580.000      5.171    66.7975   -22.2454   -41.1655   119.9771     2.6000    -2.0000   -34.2897    39.0000    30.0000    30.0000    39.0000    10.0000    30.0000    30.0000    30.0000    86.3046    -1.0000     0.0000    -0.0010     0.0000   159.4104   -41.1799     3.6428     2.9934     0.0000     0.6563    14.7005    14.6907     0.0098     1.0000     1.0000     1.000
     90   132.5235      1.000   1828.000  13343.000      5.081    66.7975   -22.2454   -41.1655   119.9771     2.6000    -2.0000   -34.2897    39.0000    30.0000    30.0000    39.0000    10.0000    30.0000    30.0000    30.0000    86.3046    -1.0000     0.0000    -0.0010     0.0000   159.4104   -41.1799     3.6428     2.9930     0.0000     0.6735    14.7005    14.6907     0.0098     1.0000     1.0000     1.000
     91   132.4235      1.000   1798.000  13546.000      5.158    66.7975   -22.2454   -41.1655   119.9771     2.6000    -2.0000   -34.2897    39.0000    30.0000    30.0000    39.0000    10.0000    30.0000    30.0000    30.0000    86.3046    -1.0000     0.0000    -0.0010     0.0000   159.4104   -41.1799     3.6428     2.9926     0.0000     0.6907    14.7005    14.6907     0.0098     1.0000     1.0000     1.000
     92   132.3235      1.000   1832.000  13578.000      5.171    66.7975   -22.2454   -41.1655   119.9771     2.6000    -2.0000   -34.2897    39.0000    30.0000    30.0000    39.0000    10.0000    30.0000    30.0000    30.0000    86.3046    -1.0000     0.0000    -0.0010     0.0000   159.4104   -41.1799     3.6428     2.9923     0.0000     0.7078    14.7005    14.6907     0.0098     1.0000     1.0000     1.000
     93   132.2235      1.000   1698.000  13400.000      5.103    66.7975   -22.2454   -41.1655   119.9771     2.6000    -2.0000   -34.2897    39.0000    30.0000    30.0000    39.0000    10.0000    30.0000    30.0000    30.0000    86.3046    -1.0000     0.0000    -0.0010     0.0000   159.4104   -41.1799     3.6428     2.9919     0.0000     0.7250    14.7005    14.6907     0.0098     1.0000     1.0000     1.000
     94   132.1235      1.000   1604.000  13521.000      5.149    66.7975   -22.2454   -41.1655   119.9771     2.6000    -2.0000   -34.2897    39.0000    30.0000    30.0000    39.0000    10.0000    30.0000    30.0000    30.0000    86.3046    -1.0000     0.0000    -0.0010     0.0000   159.4104   -41.1799     3.6428     2.9915     0.0000     0.7421    14.7005    14.6907     0.0098     1.0000     1.0000     1.000
     95   132.0235      1.000   1488.000  13681.000      5.210    66.7975   -22.2454   -41.1655   119.9771     2.6000    -2.0000   -34.2897    39.0000    30.0000    30.0000    39.0000    10.0000    30.0000    30.0000    30.0000    86.3046    -1.0000     0.0000    -0.0010     0.0000   159.4104   -41.1799     3.6428     2.9911     0.0000     0.7593    14.7005    14.6907     0.0098     1.0000     1.0000     1.000
     96   131.9235      1.000   1453.000  13551.000      5.160    66.7975   -22.2454   -41.1655   119.9771     2.6000    -2.0000   -34.2897    39.0000    30.0000    30.0000    39.0000    10.0000    30.0000    30.0000    30.0000    86.3046    -1.0000     0.0000    -0.0010     0.0000   159.4104   -41.1799     3.6428     2.9907     0.0000     0.7764    14.7005    14.6907     0.0098     1.0000     1.0000     1.000
     97   131.8235      1.000   1351.000  13602.000      5.180    66.7975   -22.2454   -41.1655   119.9771     2.6000    -2.0000   -34.2897    39.0000    30.0000    30.0000    39.0000    10.0000    30.0000    30.0000    30.0000    86.3046    -1.0000     0.0000    -0.0010     0.0000   159.4104   -41.1799     3.6428     2.9903     0.0000     0.7936    14.7005    14.6907     0.0098     1.0000     1.0000     1.000
     98   131.7235      1.000   1457.000  13565.000      5.166    66.7975   -22.2454   -41.1655   119.9771     2.6000    -2.0000   -34.2897    39.0000    30.0000    30.0000    39.0000    10.0000    30.0000    30.0000    30.0000    86.3046    -1.0000     0.0000    -0.0010     0.0000   159.4104   -41.1799     3.6428     2.9898     0.0000     0.8107    14.7005    14.6907     0.0098     1.0000     1.0000     1.000
     99   131.6235      1.000   1412.000  13599.000      5.179    66.7975   -22.2454   -41.1655   119.9771     2.6000    -2.0000   -34.2897    39.0000    30.0000    30.0000    39.0000    10.0000    30.0000    30.0000    30.0000    86.3046    -1.0000     0.0000    -0.0010     0.0000   159.4104   -41.1799     3.6428     2.9894     0.0000     0.8279    14.7005    14.6907     0.0098     1.0000     1.0000     1.000
    100   131.5235      1.000   1557.000  13637.000      5.193    66.7975   -22.2454   -41.1655   119.9771     2.6000    -2.0000   -34.2897    39.0000    30.0000    30.0000    39.0000    10.0000    30.0000    30.0000    30.0000    86.3046    -1.0000     0.0000    -0.0010     0.0000   159.4104   -41.1799     3.6428     2.9890     0.0000     0.8450    14.7005    14.6907     0.0098     1.0000     1.0000     1.000
    101   131.4235      1.000   1653.000  13394.000      5.101    66.7975   -22.2454   -41.1655   119.9771     2.6000    -2.0000   -34.2897    39.0000    30.0000    30.0000    39.0000    10.0000    30.0000    30.0000    30.0000    86.3046    -1.0000     0.0000    -0.0010     0.0000   159.4104   -41.1799     3.6428     2.9885     0.0000     0.8621    14.7005    14.6907     0.0098     1.0000     1.0000     1.000
# Sum of Counts = 2498839
# Center of Mass = 137.021667+/-0.122587
# Full Width Half-Maximum = 2.684396+/-0.029739
# 3:31:51 PM  9/5/2017   scan completed.
