# scan = 32
# date = 9/5/2017
# time = 3:12:09 PM
# proposal = 19739
# experiment = Separation of phonon and magnetic scattering near the Majorana mode in Î±-RuCl3: feasibility study
# experiment_number = 600
# command = scanrel s1 3 -3 0.1
# builtin_command = scan s1 @(s1)+3 @(s1)+-3 0.100000
# users = Paula Kelley
# local_contact = 
# scan_title = Co-alignment on post RT 0 0 6 position
# monochromator = PG002
# analyzer = Pg002
# sense = -+-
# collimation = 48-40-40-120
# samplename = RuCl3
# sampletype = crystal
# samplemosaic = 30.000000
# latticeconstants = 5.975000,5.975000,17.000000,90.000000,90.000000,120.000000
# ubmatrix = -0.008953,-0.004477,-0.058760,0.193048,0.096524,-0.002725,0.000000,-0.167364,0.000000
# mode = 0
# plane_normal = 0.000000,0.000000,1.000000
# ubconf = UB05Sep2017_23318PM.ini
# preset_type = normal 
# preset_channel = time
# preset_value = 1.000000
# def_x = s1
# def_y = detector
# col_headers = 
#   Pt.         s1       time   detector    monitor        mcu focal_length         m1         m2   mcrystal       marc     mtrans     mfocus        bab        bal        bar        bat        bbb        bbl        bbr        bbt         s2        sgl        sgu        stl        stu         a1         a2          q          h          k          l         ei         ef          e   cold_tip    tsample       temp
      1    31.5004      1.000   2052.000  13696.000      5.216    66.7975   -22.2454   -41.1655   119.9771     2.6000    -2.0000   -34.2897    39.0000    30.0000    30.0000    39.0000    10.0000    30.0000    30.0000    30.0000    49.1997     0.0000     0.0000    -0.0010     0.0000   159.4104   -41.1799     2.2172     0.3025     0.0000     5.9160    14.7005    14.6907     0.0098     1.0000     1.0000     1.000
      2    31.4002      1.000   2289.000  13428.000      5.113    66.7975   -22.2454   -41.1655   119.9771     2.6000    -2.0000   -34.2897    39.0000    30.0000    30.0000    39.0000    10.0000    30.0000    30.0000    30.0000    49.1997     0.0000     0.0000    -0.0010     0.0000   159.4104   -41.1799     2.2172     0.2993     0.0000     5.9177    14.7005    14.6907     0.0098     1.0000     1.0000     1.000
      3    31.3003      1.000   2444.000  13597.000      5.178    66.7975   -22.2454   -41.1655   119.9771     2.6000    -2.0000   -34.2897    39.0000    30.0000    30.0000    39.0000    10.0000    30.0000    30.0000    30.0000    49.1997     0.0000     0.0000    -0.0010     0.0000   159.4104   -41.1799     2.2172     0.2962     0.0000     5.9194    14.7005    14.6907     0.0098     1.0000     1.0000     1.000
      4    31.2003      1.000   2509.000  13543.000      5.157    66.7975   -22.2454   -41.1655   119.9771     2.6000    -2.0000   -34.2897    39.0000    30.0000    30.0000    39.0000    10.0000    30.0000    30.0000    30.0000    49.1997     0.0000     0.0000    -0.0010     0.0000   159.4104   -41.1799     2.2172     0.2930     0.0000     5.9211    14.7005    14.6907     0.0098     1.0000     1.0000     1.000
      5    31.1002      1.000   2662.000  13824.000      5.264    66.7975   -22.2454   -41.1655   119.9771     2.6000    -2.0000   -34.2897    39.0000    30.0000    30.0000    39.0000    10.0000    30.0000    30.0000    30.0000    49.1997     0.0000     0.0000    -0.0010     0.0000   159.4104   -41.1799     2.2172     0.2899     0.0000     5.9228    14.7005    14.6907     0.0098     1.0000     1.0000     1.000
      6    31.0003      1.000   2929.000  13566.000      5.166    66.7975   -22.2454   -41.1655   119.9771     2.6000    -2.0000   -34.2897    39.0000    30.0000    30.0000    39.0000    10.0000    30.0000    30.0000    30.0000    49.1997     0.0000     0.0000    -0.0010     0.0000   159.4104   -41.1799     2.2172     0.2867     0.0000     5.9244    14.7005    14.6907     0.0098     1.0000     1.0000     1.000
      7    30.9002      1.000   3067.000  13522.000      5.149    66.7975   -22.2454   -41.1655   119.9771     2.6000    -2.0000   -34.2897    39.0000    30.0000    30.0000    39.0000    10.0000    30.0000    30.0000    30.0000    49.1997     0.0000     0.0000    -0.0010     0.0000   159.4104   -41.1799     2.2172     0.2836     0.0000     5.9261    14.7005    14.6907     0.0098     1.0000     1.0000     1.000
      8    30.8003      1.000   4079.000  13427.000      5.113    66.7975   -22.2454   -41.1655   119.9771     2.6000    -2.0000   -34.2897    39.0000    30.0000    30.0000    39.0000    10.0000    30.0000    30.0000    30.0000    49.1997     0.0000     0.0000    -0.0010     0.0000   159.4104   -41.1799     2.2172     0.2804     0.0000     5.9277    14.7005    14.6907     0.0098     1.0000     1.0000     1.000
      9    30.7003      1.000   7446.000  13506.000      5.143    66.7975   -22.2454   -41.1655   119.9771     2.6000    -2.0000   -34.2897    39.0000    30.0000    30.0000    39.0000    10.0000    30.0000    30.0000    30.0000    49.1997     0.0000     0.0000    -0.0010     0.0000   159.4104   -41.1799     2.2172     0.2773     0.0000     5.9293    14.7005    14.6907     0.0098     1.0000     1.0000     1.000
     10    30.6002      1.000  14963.000  13722.000      5.225    66.7975   -22.2454   -41.1655   119.9771     2.6000    -2.0000   -34.2897    39.0000    30.0000    30.0000    39.0000    10.0000    30.0000    30.0000    30.0000    49.1997     0.0000     0.0000    -0.0010     0.0000   159.4104   -41.1799     2.2172     0.2741     0.0000     5.9309    14.7005    14.6907     0.0098     1.0000     1.0000     1.000
     11    30.5003      1.000  26389.000  13727.000      5.227    66.7975   -22.2454   -41.1655   119.9771     2.6000    -2.0000   -34.2897    39.0000    30.0000    30.0000    39.0000    10.0000    30.0000    30.0000    30.0000    49.1997     0.0000     0.0000    -0.0010     0.0000   159.4104   -41.1799     2.2172     0.2710     0.0000     5.9324    14.7005    14.6907     0.0098     1.0000     1.0000     1.000
     12    30.4002      1.000  38460.000  13397.000      5.102    66.7975   -22.2454   -41.1655   119.9771     2.6000    -2.0000   -34.2897    39.0000    30.0000    30.0000    39.0000    10.0000    30.0000    30.0000    30.0000    49.1997     0.0000     0.0000    -0.0010     0.0000   159.4104   -41.1799     2.2172     0.2678     0.0000     5.9340    14.7005    14.6907     0.0098     1.0000     1.0000     1.000
     13    30.3003      1.000  46676.000  13685.000      5.211    66.7975   -22.2454   -41.1655   119.9771     2.6000    -2.0000   -34.2897    39.0000    30.0000    30.0000    39.0000    10.0000    30.0000    30.0000    30.0000    49.1997     0.0000     0.0000    -0.0010     0.0000   159.4104   -41.1799     2.2172     0.2647     0.0000     5.9355    14.7005    14.6907     0.0098     1.0000     1.0000     1.000
     14    30.2003      1.000  48607.000  13625.000      5.188    66.7975   -22.2454   -41.1655   119.9771     2.6000    -2.0000   -34.2897    39.0000    30.0000    30.0000    39.0000    10.0000    30.0000    30.0000    30.0000    49.1997     0.0000     0.0000    -0.0010     0.0000   159.4104   -41.1799     2.2172     0.2615     0.0000     5.9370    14.7005    14.6907     0.0098     1.0000     1.0000     1.000
     15    30.1002      1.000  45238.000  13540.000      5.156    66.7975   -22.2454   -41.1655   119.9771     2.6000    -2.0000   -34.2897    39.0000    30.0000    30.0000    39.0000    10.0000    30.0000    30.0000    30.0000    49.1997     0.0000     0.0000    -0.0010     0.0000   159.4104   -41.1799     2.2172     0.2584     0.0000     5.9385    14.7005    14.6907     0.0098     1.0000     1.0000     1.000
     16    30.0003      1.000  40783.000  13656.000      5.200    66.7975   -22.2454   -41.1655   119.9771     2.6000    -2.0000   -34.2897    39.0000    30.0000    30.0000    39.0000    10.0000    30.0000    30.0000    30.0000    49.1997     0.0000     0.0000    -0.0010     0.0000   159.4104   -41.1799     2.2172     0.2552     0.0000     5.9400    14.7005    14.6907     0.0098     1.0000     1.0000     1.000
     17    29.9002      1.000  38481.000  13443.000      5.119    66.7975   -22.2454   -41.1655   119.9771     2.6000    -2.0000   -34.2897    39.0000    30.0000    30.0000    39.0000    10.0000    30.0000    30.0000    30.0000    49.1997     0.0000     0.0000    -0.0010     0.0000   159.4104   -41.1799     2.2172     0.2521     0.0000     5.9414    14.7005    14.6907     0.0098     1.0000     1.0000     1.000
     18    29.8003      1.000  36670.000  13511.000      5.145    66.7975   -22.2454   -41.1655   119.9771     2.6000    -2.0000   -34.2897    39.0000    30.0000    30.0000    39.0000    10.0000    30.0000    30.0000    30.0000    49.1997     0.0000     0.0000    -0.0010     0.0000   159.4104   -41.1799     2.2172     0.2489     0.0000     5.9429    14.7005    14.6907     0.0098     1.0000     1.0000     1.000
     19    29.7003      1.000  35957.000  13599.000      5.179    66.7975   -22.2454   -41.1655   119.9771     2.6000    -2.0000   -34.2897    39.0000    30.0000    30.0000    39.0000    10.0000    30.0000    30.0000    30.0000    49.1997     0.0000     0.0000    -0.0010     0.0000   159.4104   -41.1799     2.2172     0.2458     0.0000     5.9443    14.7005    14.6907     0.0098     1.0000     1.0000     1.000
     20    29.6002      1.000  35111.000  13506.000      5.143    66.7975   -22.2454   -41.1655   119.9771     2.6000    -2.0000   -34.2897    39.0000    30.0000    30.0000    39.0000    10.0000    30.0000    30.0000    30.0000    49.1997     0.0000     0.0000    -0.0010     0.0000   159.4104   -41.1799     2.2172     0.2426     0.0000     5.9457    14.7005    14.6907     0.0098     1.0000     1.0000     1.000
     21    29.5003      1.000  33970.000  13620.000      5.187    66.7975   -22.2454   -41.1655   119.9771     2.6000    -2.0000   -34.2897    39.0000    30.0000    30.0000    39.0000    10.0000    30.0000    30.0000    30.0000    49.1997     0.0000     0.0000    -0.0010     0.0000   159.4104   -41.1799     2.2172     0.2394     0.0000     5.9471    14.7005    14.6907     0.0098     1.0000     1.0000     1.000
     22    29.4002      1.000  33935.000  13662.000      5.203    66.7975   -22.2454   -41.1655   119.9771     2.6000    -2.0000   -34.2897    39.0000    30.0000    30.0000    39.0000    10.0000    30.0000    30.0000    30.0000    49.1997     0.0000     0.0000    -0.0010     0.0000   159.4104   -41.1799     2.2172     0.2363     0.0000     5.9484    14.7005    14.6907     0.0098     1.0000     1.0000     1.000
     23    29.3003      1.000  34625.000  13570.000      5.168    66.7975   -22.2454   -41.1655   119.9771     2.6000    -2.0000   -34.2897    39.0000    30.0000    30.0000    39.0000    10.0000    30.0000    30.0000    30.0000    49.1997     0.0000     0.0000    -0.0010     0.0000   159.4104   -41.1799     2.2172     0.2331     0.0000     5.9498    14.7005    14.6907     0.0098     1.0000     1.0000     1.000
     24    29.2003      1.000  37927.000  13572.000      5.168    66.7975   -22.2454   -41.1655   119.9771     2.6000    -2.0000   -34.2897    39.0000    30.0000    30.0000    39.0000    10.0000    30.0000    30.0000    30.0000    49.1997     0.0000     0.0000    -0.0010     0.0000   159.4104   -41.1799     2.2172     0.2300     0.0000     5.9511    14.7005    14.6907     0.0098     1.0000     1.0000     1.000
     25    29.1002      1.000  43208.000  13548.000      5.159    66.7975   -22.2454   -41.1655   119.9771     2.6000    -2.0000   -34.2897    39.0000    30.0000    30.0000    39.0000    10.0000    30.0000    30.0000    30.0000    49.1997     0.0000     0.0000    -0.0010     0.0000   159.4104   -41.1799     2.2172     0.2268     0.0000     5.9524    14.7005    14.6907     0.0098     1.0000     1.0000     1.000
     26    29.0003      1.000  51231.000  13684.000      5.211    66.7975   -22.2454   -41.1655   119.9771     2.6000    -2.0000   -34.2897    39.0000    30.0000    30.0000    39.0000    10.0000    30.0000    30.0000    30.0000    49.1997     0.0000     0.0000    -0.0010     0.0000   159.4104   -41.1799     2.2172     0.2236     0.0000     5.9537    14.7005    14.6907     0.0098     1.0000     1.0000     1.000
     27    28.9002      1.000  60177.000  13606.000      5.181    66.7975   -22.2454   -41.1655   119.9771     2.6000    -2.0000   -34.2897    39.0000    30.0000    30.0000    39.0000    10.0000    30.0000    30.0000    30.0000    49.1997     0.0000     0.0000    -0.0010     0.0000   159.4104   -41.1799     2.2172     0.2205     0.0000     5.9550    14.7005    14.6907     0.0098     1.0000     1.0000     1.000
     28    28.8003      1.000  68980.000  13549.000      5.160    66.7975   -22.2454   -41.1655   119.9771     2.6000    -2.0000   -34.2897    39.0000    30.0000    30.0000    39.0000    10.0000    30.0000    30.0000    30.0000    49.1997     0.0000     0.0000    -0.0010     0.0000   159.4104   -41.1799     2.2172     0.2173     0.0000     5.9562    14.7005    14.6907     0.0098     1.0000     1.0000     1.000
     29    28.7003      1.000  79340.000  13581.000      5.172    66.7975   -22.2454   -41.1655   119.9771     2.6000    -2.0000   -34.2897    39.0000    30.0000    30.0000    39.0000    10.0000    30.0000    30.0000    30.0000    49.1997     0.0000     0.0000    -0.0010     0.0000   159.4104   -41.1799     2.2172     0.2141     0.0000     5.9575    14.7005    14.6907     0.0098     1.0000     1.0000     1.000
     30    28.6002      1.000  92095.000  13599.000      5.179    66.7975   -22.2454   -41.1655   119.9771     2.6000    -2.0000   -34.2897    39.0000    30.0000    30.0000    39.0000    10.0000    30.0000    30.0000    30.0000    49.1997     0.0000     0.0000    -0.0010     0.0000   159.4104   -41.1799     2.2172     0.2110     0.0000     5.9587    14.7005    14.6907     0.0098     1.0000     1.0000     1.000
     31    28.5003      1.000 102506.000  13923.000      5.302    66.7975   -22.2454   -41.1655   119.9771     2.6000    -2.0000   -34.2897    39.0000    30.0000    30.0000    39.0000    10.0000    30.0000    30.0000    30.0000    49.1997     0.0000     0.0000    -0.0010     0.0000   159.4104   -41.1799     2.2172     0.2078     0.0000     5.9599    14.7005    14.6907     0.0098     1.0000     1.0000     1.000
     32    28.4001      1.000 105188.000  13695.000      5.215    66.7975   -22.2454   -41.1655   119.9771     2.6000    -2.0000   -34.2897    39.0000    30.0000    30.0000    39.0000    10.0000    30.0000    30.0000    30.0000    49.1997     0.0000     0.0000    -0.0010     0.0000   159.4104   -41.1799     2.2172     0.2046     0.0000     5.9611    14.7005    14.6907     0.0098     1.0000     1.0000     1.000
     33    28.3001      1.000 101610.000  13896.000      5.292    66.7975   -22.2454   -41.1655   119.9771     2.6000    -2.0000   -34.2897    39.0000    30.0000    30.0000    39.0000    10.0000    30.0000    30.0000    30.0000    49.1997     0.0000     0.0000    -0.0010     0.0000   159.4104   -41.1799     2.2172     0.2015     0.0000     5.9622    14.7005    14.6907     0.0098     1.0000     1.0000     1.000
     34    28.2001      1.000  93490.000  13662.000      5.203    66.7975   -22.2454   -41.1655   119.9771     2.6000    -2.0000   -34.2897    39.0000    30.0000    30.0000    39.0000    10.0000    30.0000    30.0000    30.0000    49.1997     0.0000     0.0000    -0.0010     0.0000   159.4104   -41.1799     2.2172     0.1983     0.0000     5.9634    14.7005    14.6907     0.0098     1.0000     1.0000     1.000
     35    28.1001      1.000  86057.000  13736.000      5.231    66.7975   -22.2454   -41.1655   119.9771     2.6000    -2.0000   -34.2897    39.0000    30.0000    30.0000    39.0000    10.0000    30.0000    30.0000    30.0000    49.1997     0.0000     0.0000    -0.0010     0.0000   159.4104   -41.1799     2.2172     0.1951     0.0000     5.9645    14.7005    14.6907     0.0098     1.0000     1.0000     1.000
     36    28.0003      1.000  82655.000  13495.000      5.139    66.7975   -22.2454   -41.1655   119.9771     2.6000    -2.0000   -34.2897    39.0000    30.0000    30.0000    39.0000    10.0000    30.0000    30.0000    30.0000    49.1997     0.0000     0.0000    -0.0010     0.0000   159.4104   -41.1799     2.2172     0.1920     0.0000     5.9656    14.7005    14.6907     0.0098     1.0000     1.0000     1.000
     37    27.9002      1.000  85983.000  13610.000      5.183    66.7975   -22.2454   -41.1655   119.9771     2.6000    -2.0000   -34.2897    39.0000    30.0000    30.0000    39.0000    10.0000    30.0000    30.0000    30.0000    49.1997     0.0000     0.0000    -0.0010     0.0000   159.4104   -41.1799     2.2172     0.1888     0.0000     5.9667    14.7005    14.6907     0.0098     1.0000     1.0000     1.000
     38    27.8003      1.000  88742.000  13640.000      5.194    66.7975   -22.2454   -41.1655   119.9771     2.6000    -2.0000   -34.2897    39.0000    30.0000    30.0000    39.0000    10.0000    30.0000    30.0000    30.0000    49.1997     0.0000     0.0000    -0.0010     0.0000   159.4104   -41.1799     2.2172     0.1856     0.0000     5.9678    14.7005    14.6907     0.0098     1.0000     1.0000     1.000
     39    27.7003      1.000  84393.000  13604.000      5.181    66.7975   -22.2454   -41.1655   119.9771     2.6000    -2.0000   -34.2897    39.0000    30.0000    30.0000    39.0000    10.0000    30.0000    30.0000    30.0000    49.1997     0.0000     0.0000    -0.0010     0.0000   159.4104   -41.1799     2.2172     0.1825     0.0000     5.9688    14.7005    14.6907     0.0098     1.0000     1.0000     1.000
     40    27.6002      1.000  72322.000  13549.000      5.160    66.7975   -22.2454   -41.1655   119.9771     2.6000    -2.0000   -34.2897    39.0000    30.0000    30.0000    39.0000    10.0000    30.0000    30.0000    30.0000    49.1997     0.0000     0.0000    -0.0010     0.0000   159.4104   -41.1799     2.2172     0.1793     0.0000     5.9699    14.7005    14.6907     0.0098     1.0000     1.0000     1.000
     41    27.5003      1.000  55974.000  13672.000      5.206    66.7975   -22.2454   -41.1655   119.9771     2.6000    -2.0000   -34.2897    39.0000    30.0000    30.0000    39.0000    10.0000    30.0000    30.0000    30.0000    49.1997     0.0000     0.0000    -0.0010     0.0000   159.4104   -41.1799     2.2172     0.1761     0.0000     5.9709    14.7005    14.6907     0.0098     1.0000     1.0000     1.000
     42    27.4001      1.000  40176.000  13689.000      5.213    66.7975   -22.2454   -41.1655   119.9771     2.6000    -2.0000   -34.2897    39.0000    30.0000    30.0000    39.0000    10.0000    30.0000    30.0000    30.0000    49.1997     0.0000     0.0000    -0.0010     0.0000   159.4104   -41.1799     2.2172     0.1729     0.0000     5.9719    14.7005    14.6907     0.0098     1.0000     1.0000     1.000
     43    27.3001      1.000  28402.000  13402.000      5.104    66.7975   -22.2454   -41.1655   119.9771     2.6000    -2.0000   -34.2897    39.0000    30.0000    30.0000    39.0000    10.0000    30.0000    30.0000    30.0000    49.1997     0.0000     0.0000    -0.0010     0.0000   159.4104   -41.1799     2.2172     0.1698     0.0000     5.9729    14.7005    14.6907     0.0098     1.0000     1.0000     1.000
     44    27.2001      1.000  20394.000  13651.000      5.198    66.7975   -22.2454   -41.1655   119.9771     2.6000    -2.0000   -34.2897    39.0000    30.0000    30.0000    39.0000    10.0000    30.0000    30.0000    30.0000    49.1997     0.0000     0.0000    -0.0010     0.0000   159.4104   -41.1799     2.2172     0.1666     0.0000     5.9738    14.7005    14.6907     0.0098     1.0000     1.0000     1.000
     45    27.1001      1.000  15071.000  13509.000      5.144    66.7975   -22.2454   -41.1655   119.9771     2.6000    -2.0000   -34.2897    39.0000    30.0000    30.0000    39.0000    10.0000    30.0000    30.0000    30.0000    49.1997     0.0000     0.0000    -0.0010     0.0000   159.4104   -41.1799     2.2172     0.1634     0.0000     5.9748    14.7005    14.6907     0.0098     1.0000     1.0000     1.000
     46    27.0003      1.000  11796.000  13481.000      5.134    66.7975   -22.2454   -41.1655   119.9771     2.6000    -2.0000   -34.2897    39.0000    30.0000    30.0000    39.0000    10.0000    30.0000    30.0000    30.0000    49.1997     0.0000     0.0000    -0.0010     0.0000   159.4104   -41.1799     2.2172     0.1602     0.0000     5.9757    14.7005    14.6907     0.0098     1.0000     1.0000     1.000
     47    26.9002      1.000   9546.000  13426.000      5.113    66.7975   -22.2454   -41.1655   119.9771     2.6000    -2.0000   -34.2897    39.0000    30.0000    30.0000    39.0000    10.0000    30.0000    30.0000    30.0000    49.1997     0.0000     0.0000    -0.0010     0.0000   159.4104   -41.1799     2.2172     0.1571     0.0000     5.9766    14.7005    14.6907     0.0098     1.0000     1.0000     1.000
     48    26.8003      1.000   8265.000  13330.000      5.076    66.7975   -22.2454   -41.1655   119.9771     2.6000    -2.0000   -34.2897    39.0000    30.0000    30.0000    39.0000    10.0000    30.0000    30.0000    30.0000    49.1997     0.0000     0.0000    -0.0010     0.0000   159.4104   -41.1799     2.2172     0.1539     0.0000     5.9775    14.7005    14.6907     0.0098     1.0000     1.0000     1.000
     49    26.7003      1.000   7239.000  13482.000      5.134    66.7975   -22.2454   -41.1655   119.9771     2.6000    -2.0000   -34.2897    39.0000    30.0000    30.0000    39.0000    10.0000    30.0000    30.0000    30.0000    49.1997     0.0000     0.0000    -0.0010     0.0000   159.4104   -41.1799     2.2172     0.1507     0.0000     5.9784    14.7005    14.6907     0.0098     1.0000     1.0000     1.000
     50    26.6001      1.000   6589.000  13373.000      5.093    66.7975   -22.2454   -41.1655   119.9771     2.6000    -2.0000   -34.2897    39.0000    30.0000    30.0000    39.0000    10.0000    30.0000    30.0000    30.0000    49.1997     0.0000     0.0000    -0.0010     0.0000   159.4104   -41.1799     2.2172     0.1475     0.0000     5.9792    14.7005    14.6907     0.0098     1.0000     1.0000     1.000
     51    26.5001      1.000   5845.000  13708.000      5.220    66.7975   -22.2454   -41.1655   119.9771     2.6000    -2.0000   -34.2897    39.0000    30.0000    30.0000    39.0000    10.0000    30.0000    30.0000    30.0000    49.1997     0.0000     0.0000    -0.0010     0.0000   159.4104   -41.1799     2.2172     0.1444     0.0000     5.9801    14.7005    14.6907     0.0098     1.0000     1.0000     1.000
     52    26.4001      1.000   5217.000  13526.000      5.151    66.7975   -22.2454   -41.1655   119.9771     2.6000    -2.0000   -34.2897    39.0000    30.0000    30.0000    39.0000    10.0000    30.0000    30.0000    30.0000    49.1997     0.0000     0.0000    -0.0010     0.0000   159.4104   -41.1799     2.2172     0.1412     0.0000     5.9809    14.7005    14.6907     0.0098     1.0000     1.0000     1.000
     53    26.3001      1.000   4745.000  13296.000      5.063    66.7975   -22.2454   -41.1655   119.9771     2.6000    -2.0000   -34.2897    39.0000    30.0000    30.0000    39.0000    10.0000    30.0000    30.0000    30.0000    49.1997     0.0000     0.0000    -0.0010     0.0000   159.4104   -41.1799     2.2172     0.1380     0.0000     5.9817    14.7005    14.6907     0.0098     1.0000     1.0000     1.000
     54    26.2001      1.000   4191.000  13573.000      5.169    66.7975   -22.2454   -41.1655   119.9771     2.6000    -2.0000   -34.2897    39.0000    30.0000    30.0000    39.0000    10.0000    30.0000    30.0000    30.0000    49.1997     0.0000     0.0000    -0.0010     0.0000   159.4104   -41.1799     2.2172     0.1348     0.0000     5.9825    14.7005    14.6907     0.0098     1.0000     1.0000     1.000
     55    26.1001      1.000   3751.000  13527.000      5.151    66.7975   -22.2454   -41.1655   119.9771     2.6000    -2.0000   -34.2897    39.0000    30.0000    30.0000    39.0000    10.0000    30.0000    30.0000    30.0000    49.1997     0.0000     0.0000    -0.0010     0.0000   159.4104   -41.1799     2.2172     0.1317     0.0000     5.9832    14.7005    14.6907     0.0098     1.0000     1.0000     1.000
     56    26.0003      1.000   3262.000  13225.000      5.036    66.7975   -22.2454   -41.1655   119.9771     2.6000    -2.0000   -34.2897    39.0000    30.0000    30.0000    39.0000    10.0000    30.0000    30.0000    30.0000    49.1997     0.0000     0.0000    -0.0010     0.0000   159.4104   -41.1799     2.2172     0.1285     0.0000     5.9840    14.7005    14.6907     0.0098     1.0000     1.0000     1.000
     57    25.9002      1.000   3167.000  13548.000      5.159    66.7975   -22.2454   -41.1655   119.9771     2.6000    -2.0000   -34.2897    39.0000    30.0000    30.0000    39.0000    10.0000    30.0000    30.0000    30.0000    49.1997     0.0000     0.0000    -0.0010     0.0000   159.4104   -41.1799     2.2172     0.1253     0.0000     5.9847    14.7005    14.6907     0.0098     1.0000     1.0000     1.000
     58    25.8003      1.000   2895.000  13476.000      5.132    66.7975   -22.2454   -41.1655   119.9771     2.6000    -2.0000   -34.2897    39.0000    30.0000    30.0000    39.0000    10.0000    30.0000    30.0000    30.0000    49.1997     0.0000     0.0000    -0.0010     0.0000   159.4104   -41.1799     2.2172     0.1221     0.0000     5.9854    14.7005    14.6907     0.0098     1.0000     1.0000     1.000
     59    25.7003      1.000   2699.000  13587.000      5.174    66.7975   -22.2454   -41.1655   119.9771     2.6000    -2.0000   -34.2897    39.0000    30.0000    30.0000    39.0000    10.0000    30.0000    30.0000    30.0000    49.1997     0.0000     0.0000    -0.0010     0.0000   159.4104   -41.1799     2.2172     0.1189     0.0000     5.9861    14.7005    14.6907     0.0098     1.0000     1.0000     1.000
     60    25.6002      1.000   2411.000  13576.000      5.170    66.7975   -22.2454   -41.1655   119.9771     2.6000    -2.0000   -34.2897    39.0000    30.0000    30.0000    39.0000    10.0000    30.0000    30.0000    30.0000    49.1997     0.0000     0.0000    -0.0010     0.0000   159.4104   -41.1799     2.2172     0.1158     0.0000     5.9868    14.7005    14.6907     0.0098     1.0000     1.0000     1.000
     61    25.5003      1.000   2171.000  13393.000      5.100    66.7975   -22.2454   -41.1655   119.9771     2.6000    -2.0000   -34.2897    39.0000    30.0000    30.0000    39.0000    10.0000    30.0000    30.0000    30.0000    49.1997     0.0000     0.0000    -0.0010     0.0000   159.4104   -41.1799     2.2172     0.1126     0.0000     5.9874    14.7005    14.6907     0.0098     1.0000     1.0000     1.000
# Sum of Counts = 2119052
# Center of Mass = 28.605148+/-0.027799
# Full Width Half-Maximum = 2.018733+/-0.007409
# 3:14:01 PM  9/5/2017   scan completed.
